{
    "client": {
        "type": "sona",
        "experiment_id": 2228,
        "credit_token": "b315147ae43241ea9c65086cb510cfb7",
        "survey_code": "33306",
        "sid": "sona-33306",
        "window": {
            "width": 1280,
            "height": 569
        },
        "screen": {
            "width": 1280,
            "height": 720
        },
        "userAgent": "Mozilla\/5.0 (Windows NT 10.0; Win64; x64) AppleWebKit\/537.36 (KHTML, like Gecko) Chrome\/97.0.4692.71 Safari\/537.36",
        "score": 0,
        "bonus": 0
    },
    "expt": {
        "saveURL": "submit.simple.php",
        "trials": 100,
        "practiceTrials": 2,
        "marblesSampled": 100,
        "probRed": 0.5,
        "lambdaAI": 5,
        "roleFirst": "sender",
        "roles": [
            "sender",
            "receiver"
        ],
        "cost": "unif",
        "goal": "over",
        "catchTrials": [
            47,
            79,
            84,
            87,
            83,
            26,
            75,
            17,
            85,
            51
        ],
        "scoreTotal": {
            "player": 631,
            "opp": -2222
        },
        "sona": {
            "experiment_id": 2228,
            "credit_token": "b315147ae43241ea9c65086cb510cfb7"
        },
        "pilot": false,
        "debug": false
    },
    "trials": [
        {
            "exptPart": "practice",
            "trialNumber": 1,
            "roleCurrent": "sender",
            "marblesSampled": 100,
            "probRed": 0.5,
            "lambda": 5,
            "drawnRed": 31,
            "reportedRed": 100,
            "inferredRed": 94,
            "playerTrialScore": 63,
            "oppTrialScore": -63,
            "playerTotalScore": 63,
            "oppTotalScore": -63,
            "waitTime": 2317.03410736563,
            "responseTime": 1642469070709,
            "catchQuestion": "How many <b class=\"r\">red<\/b> marbles did you actually draw (before any changes)? ",
            "catchKey": 31,
            "catchResponse": 31,
            "catchTime": 1642469070710,
            "trialTime": 0
        },
        {
            "exptPart": "practice",
            "trialNumber": 2,
            "roleCurrent": "receiver",
            "marblesSampled": 100,
            "probRed": 0.5,
            "lambda": 5,
            "drawnRed": 65,
            "reportedRed": 76,
            "inferredRed": 43,
            "playerTrialScore": -22,
            "oppTrialScore": 0,
            "playerTotalScore": 41,
            "oppTotalScore": -63,
            "waitTime": 7046.243961887512,
            "responseTime": 1642469136320,
            "catchQuestion": "How many <b class=\"r\">red<\/b> marbles did your opponent report drawing? ",
            "catchKey": 76,
            "catchResponse": 76,
            "catchTime": 1642469136320,
            "trialTime": 0
        },
        {
            "exptPart": "trial",
            "trialNumber": 1,
            "roleCurrent": "sender",
            "marblesSampled": 100,
            "probRed": 0.5,
            "lambda": 5,
            "drawnRed": 61,
            "reportedRed": 100,
            "inferredRed": 97,
            "playerTrialScore": 36,
            "oppTrialScore": -36,
            "playerTotalScore": 36,
            "oppTotalScore": -36,
            "waitTime": 2375.452554458921,
            "responseTime": 1642469214082,
            "catchQuestion": "How many <b class=\"r\">red<\/b> marbles did your opponent report drawing? ",
            "catchKey": -1,
            "catchResponse": -1,
            "catchTime": 1642469136320,
            "trialTime": 0
        },
        {
            "exptPart": "trial",
            "trialNumber": 2,
            "roleCurrent": "receiver",
            "marblesSampled": 100,
            "probRed": 0.5,
            "lambda": 5,
            "drawnRed": 92,
            "reportedRed": 98,
            "inferredRed": 51,
            "playerTrialScore": -41,
            "oppTrialScore": 0,
            "playerTotalScore": -5,
            "oppTotalScore": -36,
            "waitTime": 7385.835243497478,
            "responseTime": 1642469239949,
            "catchQuestion": "How many <b class=\"r\">red<\/b> marbles did your opponent report drawing? ",
            "catchKey": -1,
            "catchResponse": -1,
            "catchTime": 1642469136320,
            "trialTime": 0
        },
        {
            "exptPart": "trial",
            "trialNumber": 3,
            "roleCurrent": "sender",
            "marblesSampled": 100,
            "probRed": 0.5,
            "lambda": 5,
            "drawnRed": 86,
            "reportedRed": 100,
            "inferredRed": 92,
            "playerTrialScore": 6,
            "oppTrialScore": -6,
            "playerTotalScore": 1,
            "oppTotalScore": -42,
            "waitTime": 3240.6262147942844,
            "responseTime": 1642469276339,
            "catchQuestion": "How many <b class=\"r\">red<\/b> marbles did your opponent report drawing? ",
            "catchKey": -1,
            "catchResponse": -1,
            "catchTime": 1642469136320,
            "trialTime": 0
        },
        {
            "exptPart": "trial",
            "trialNumber": 4,
            "roleCurrent": "receiver",
            "marblesSampled": 100,
            "probRed": 0.5,
            "lambda": 5,
            "drawnRed": 32,
            "reportedRed": 38,
            "inferredRed": 17,
            "playerTrialScore": -15,
            "oppTrialScore": 0,
            "playerTotalScore": -14,
            "oppTotalScore": -42,
            "waitTime": 6443.807460939472,
            "responseTime": 1642469318876,
            "catchQuestion": "How many <b class=\"r\">red<\/b> marbles did your opponent report drawing? ",
            "catchKey": -1,
            "catchResponse": -1,
            "catchTime": 1642469136320,
            "trialTime": 0
        },
        {
            "exptPart": "trial",
            "trialNumber": 5,
            "roleCurrent": "sender",
            "marblesSampled": 100,
            "probRed": 0.5,
            "lambda": 5,
            "drawnRed": 42,
            "reportedRed": 100,
            "inferredRed": 96,
            "playerTrialScore": 54,
            "oppTrialScore": -54,
            "playerTotalScore": 40,
            "oppTotalScore": -96,
            "waitTime": 2460.2570467530472,
            "responseTime": 1642469369069,
            "catchQuestion": "How many <b class=\"r\">red<\/b> marbles did your opponent report drawing? ",
            "catchKey": -1,
            "catchResponse": -1,
            "catchTime": 1642469369069,
            "trialTime": 0
        },
        {
            "exptPart": "trial",
            "trialNumber": 6,
            "roleCurrent": "receiver",
            "marblesSampled": 100,
            "probRed": 0.5,
            "lambda": 5,
            "drawnRed": 53,
            "reportedRed": 58,
            "inferredRed": 1,
            "playerTrialScore": -52,
            "oppTrialScore": 0,
            "playerTotalScore": -12,
            "oppTotalScore": -96,
            "waitTime": 6252.359241196567,
            "responseTime": 1642469410175,
            "catchQuestion": "How many <b class=\"r\">red<\/b> marbles did your opponent report drawing? ",
            "catchKey": -1,
            "catchResponse": -1,
            "catchTime": 1642469369069,
            "trialTime": 0
        },
        {
            "exptPart": "trial",
            "trialNumber": 7,
            "roleCurrent": "sender",
            "marblesSampled": 100,
            "probRed": 0.5,
            "lambda": 5,
            "drawnRed": 28,
            "reportedRed": 100,
            "inferredRed": 96,
            "playerTrialScore": 68,
            "oppTrialScore": -68,
            "playerTotalScore": 56,
            "oppTotalScore": -164,
            "waitTime": 2812.5641296104695,
            "responseTime": 1642469468060,
            "catchQuestion": "How many <b class=\"r\">red<\/b> marbles did your opponent report drawing? ",
            "catchKey": -1,
            "catchResponse": -1,
            "catchTime": 1642469369069,
            "trialTime": 0
        },
        {
            "exptPart": "trial",
            "trialNumber": 8,
            "roleCurrent": "receiver",
            "marblesSampled": 100,
            "probRed": 0.5,
            "lambda": 5,
            "drawnRed": 44,
            "reportedRed": 49,
            "inferredRed": 1,
            "playerTrialScore": -43,
            "oppTrialScore": 0,
            "playerTotalScore": 13,
            "oppTotalScore": -164,
            "waitTime": 7258.181994338901,
            "responseTime": 1642469482799,
            "catchQuestion": "How many <b class=\"r\">red<\/b> marbles did your opponent report drawing? ",
            "catchKey": -1,
            "catchResponse": -1,
            "catchTime": 1642469369069,
            "trialTime": 0
        },
        {
            "exptPart": "trial",
            "trialNumber": 9,
            "roleCurrent": "sender",
            "marblesSampled": 100,
            "probRed": 0.5,
            "lambda": 5,
            "drawnRed": 12,
            "reportedRed": 101,
            "inferredRed": 95,
            "playerTrialScore": 83,
            "oppTrialScore": -83,
            "playerTotalScore": 96,
            "oppTotalScore": -247,
            "waitTime": 2656.4954544524153,
            "responseTime": 1642469566906,
            "catchQuestion": "How many <b class=\"r\">red<\/b> marbles did your opponent report drawing? ",
            "catchKey": -1,
            "catchResponse": -1,
            "catchTime": 1642469369069,
            "trialTime": 0
        },
        {
            "exptPart": "trial",
            "trialNumber": 10,
            "roleCurrent": "receiver",
            "marblesSampled": 100,
            "probRed": 0.5,
            "lambda": 5,
            "drawnRed": 49,
            "reportedRed": 52,
            "inferredRed": 1,
            "playerTrialScore": -48,
            "oppTrialScore": 0,
            "playerTotalScore": 48,
            "oppTotalScore": -247,
            "waitTime": 6000.355173488977,
            "responseTime": 1642469576690,
            "catchQuestion": "How many <b class=\"r\">red<\/b> marbles did your opponent report drawing? ",
            "catchKey": -1,
            "catchResponse": -1,
            "catchTime": 1642469576691,
            "trialTime": 0
        },
        {
            "exptPart": "trial",
            "trialNumber": 11,
            "roleCurrent": "sender",
            "marblesSampled": 100,
            "probRed": 0.5,
            "lambda": 5,
            "drawnRed": 89,
            "reportedRed": 100,
            "inferredRed": 95,
            "playerTrialScore": 6,
            "oppTrialScore": -6,
            "playerTotalScore": 54,
            "oppTotalScore": -253,
            "waitTime": 2816.9454662317908,
            "responseTime": 1642469608093,
            "catchQuestion": "How many <b class=\"r\">red<\/b> marbles did your opponent report drawing? ",
            "catchKey": -1,
            "catchResponse": -1,
            "catchTime": 1642469576691,
            "trialTime": 0
        },
        {
            "exptPart": "trial",
            "trialNumber": 12,
            "roleCurrent": "receiver",
            "marblesSampled": 100,
            "probRed": 0.5,
            "lambda": 5,
            "drawnRed": 96,
            "reportedRed": 100,
            "inferredRed": 1,
            "playerTrialScore": -95,
            "oppTrialScore": 0,
            "playerTotalScore": -41,
            "oppTotalScore": -253,
            "waitTime": 5912.51314379311,
            "responseTime": 1642469618748,
            "catchQuestion": "How many <b class=\"r\">red<\/b> marbles did your opponent report drawing? ",
            "catchKey": -1,
            "catchResponse": -1,
            "catchTime": 1642469576691,
            "trialTime": 0
        },
        {
            "exptPart": "trial",
            "trialNumber": 13,
            "roleCurrent": "sender",
            "marblesSampled": 100,
            "probRed": 0.5,
            "lambda": 5,
            "drawnRed": 72,
            "reportedRed": 101,
            "inferredRed": 100,
            "playerTrialScore": 28,
            "oppTrialScore": -28,
            "playerTotalScore": -13,
            "oppTotalScore": -281,
            "waitTime": 3061.5067480525395,
            "responseTime": 1642469658685,
            "catchQuestion": "How many <b class=\"r\">red<\/b> marbles did your opponent report drawing? ",
            "catchKey": -1,
            "catchResponse": -1,
            "catchTime": 1642469576691,
            "trialTime": 0
        },
        {
            "exptPart": "trial",
            "trialNumber": 14,
            "roleCurrent": "receiver",
            "marblesSampled": 100,
            "probRed": 0.5,
            "lambda": 5,
            "drawnRed": 59,
            "reportedRed": 61,
            "inferredRed": 1,
            "playerTrialScore": -58,
            "oppTrialScore": 0,
            "playerTotalScore": -71,
            "oppTotalScore": -281,
            "waitTime": 7292.578842537854,
            "responseTime": 1642469669927,
            "catchQuestion": "How many <b class=\"r\">red<\/b> marbles did your opponent report drawing? ",
            "catchKey": -1,
            "catchResponse": -1,
            "catchTime": 1642469576691,
            "trialTime": 0
        },
        {
            "exptPart": "trial",
            "trialNumber": 15,
            "roleCurrent": "sender",
            "marblesSampled": 100,
            "probRed": 0.5,
            "lambda": 5,
            "drawnRed": 36,
            "reportedRed": 100,
            "inferredRed": 96,
            "playerTrialScore": 60,
            "oppTrialScore": -60,
            "playerTotalScore": -11,
            "oppTotalScore": -341,
            "waitTime": 2171.0843072929065,
            "responseTime": 1642469719428,
            "catchQuestion": "How many <b class=\"r\">red<\/b> marbles did your opponent report drawing? ",
            "catchKey": -1,
            "catchResponse": -1,
            "catchTime": 1642469719428,
            "trialTime": 0
        },
        {
            "exptPart": "trial",
            "trialNumber": 16,
            "roleCurrent": "receiver",
            "marblesSampled": 100,
            "probRed": 0.5,
            "lambda": 5,
            "drawnRed": 79,
            "reportedRed": 82,
            "inferredRed": 1,
            "playerTrialScore": -78,
            "oppTrialScore": 0,
            "playerTotalScore": -89,
            "oppTotalScore": -341,
            "waitTime": 5937.278793921683,
            "responseTime": 1642469792267,
            "catchQuestion": "How many <b class=\"r\">red<\/b> marbles did your opponent report drawing? ",
            "catchKey": -1,
            "catchResponse": -1,
            "catchTime": 1642469719428,
            "trialTime": 0
        },
        {
            "exptPart": "trial",
            "trialNumber": 17,
            "roleCurrent": "sender",
            "marblesSampled": 100,
            "probRed": 0.5,
            "lambda": 5,
            "drawnRed": 36,
            "reportedRed": 100,
            "inferredRed": 91,
            "playerTrialScore": 55,
            "oppTrialScore": -55,
            "playerTotalScore": -34,
            "oppTotalScore": -396,
            "waitTime": 2258.0423249761834,
            "responseTime": 1642469881411,
            "catchQuestion": "How many <b class=\"r\">red<\/b> marbles did your opponent report drawing? ",
            "catchKey": -1,
            "catchResponse": -1,
            "catchTime": 1642469719428,
            "trialTime": 0
        },
        {
            "exptPart": "trial",
            "trialNumber": 18,
            "roleCurrent": "receiver",
            "marblesSampled": 100,
            "probRed": 0.5,
            "lambda": 5,
            "drawnRed": 48,
            "reportedRed": 52,
            "inferredRed": 1,
            "playerTrialScore": -47,
            "oppTrialScore": 0,
            "playerTotalScore": -81,
            "oppTotalScore": -396,
            "waitTime": 5479.568530939997,
            "responseTime": 1642469894363,
            "catchQuestion": "How many <b class=\"r\">red<\/b> marbles did your opponent report drawing? ",
            "catchKey": 52,
            "catchResponse": 56,
            "catchTime": 1642469894363,
            "trialTime": 0
        },
        {
            "exptPart": "trial",
            "trialNumber": 19,
            "roleCurrent": "sender",
            "marblesSampled": 100,
            "probRed": 0.5,
            "lambda": 5,
            "drawnRed": 33,
            "reportedRed": 101,
            "inferredRed": 96,
            "playerTrialScore": 63,
            "oppTrialScore": -63,
            "playerTotalScore": -18,
            "oppTotalScore": -459,
            "waitTime": 2810.6913188441467,
            "responseTime": 1642469956515,
            "catchQuestion": "How many <b class=\"r\">red<\/b> marbles did your opponent report drawing? ",
            "catchKey": -1,
            "catchResponse": -1,
            "catchTime": 1642469894363,
            "trialTime": 0
        },
        {
            "exptPart": "trial",
            "trialNumber": 20,
            "roleCurrent": "receiver",
            "marblesSampled": 100,
            "probRed": 0.5,
            "lambda": 5,
            "drawnRed": 29,
            "reportedRed": 40,
            "inferredRed": 1,
            "playerTrialScore": -28,
            "oppTrialScore": 0,
            "playerTotalScore": -46,
            "oppTotalScore": -459,
            "waitTime": 6544.783433095943,
            "responseTime": 1642469965954,
            "catchQuestion": "How many <b class=\"r\">red<\/b> marbles did your opponent report drawing? ",
            "catchKey": -1,
            "catchResponse": -1,
            "catchTime": 1642469965954,
            "trialTime": 0
        },
        {
            "exptPart": "trial",
            "trialNumber": 21,
            "roleCurrent": "sender",
            "marblesSampled": 100,
            "probRed": 0.5,
            "lambda": 5,
            "drawnRed": 64,
            "reportedRed": 100,
            "inferredRed": 96,
            "playerTrialScore": 32,
            "oppTrialScore": -32,
            "playerTotalScore": -14,
            "oppTotalScore": -491,
            "waitTime": 2103.189366157125,
            "responseTime": 1642470058261,
            "catchQuestion": "How many <b class=\"r\">red<\/b> marbles did your opponent report drawing? ",
            "catchKey": -1,
            "catchResponse": -1,
            "catchTime": 1642469965954,
            "trialTime": 0
        },
        {
            "exptPart": "trial",
            "trialNumber": 22,
            "roleCurrent": "receiver",
            "marblesSampled": 100,
            "probRed": 0.5,
            "lambda": 5,
            "drawnRed": 41,
            "reportedRed": 45,
            "inferredRed": 1,
            "playerTrialScore": -40,
            "oppTrialScore": 0,
            "playerTotalScore": -54,
            "oppTotalScore": -491,
            "waitTime": 7427.510130831235,
            "responseTime": 1642470072886,
            "catchQuestion": "How many <b class=\"r\">red<\/b> marbles did your opponent report drawing? ",
            "catchKey": -1,
            "catchResponse": -1,
            "catchTime": 1642469965954,
            "trialTime": 0
        },
        {
            "exptPart": "trial",
            "trialNumber": 23,
            "roleCurrent": "sender",
            "marblesSampled": 100,
            "probRed": 0.5,
            "lambda": 5,
            "drawnRed": 55,
            "reportedRed": 102,
            "inferredRed": 101,
            "playerTrialScore": 46,
            "oppTrialScore": -46,
            "playerTotalScore": -8,
            "oppTotalScore": -537,
            "waitTime": 2067.3139353225943,
            "responseTime": 1642470115629,
            "catchQuestion": "How many <b class=\"r\">red<\/b> marbles did your opponent report drawing? ",
            "catchKey": -1,
            "catchResponse": -1,
            "catchTime": 1642469965954,
            "trialTime": 0
        },
        {
            "exptPart": "trial",
            "trialNumber": 24,
            "roleCurrent": "receiver",
            "marblesSampled": 100,
            "probRed": 0.5,
            "lambda": 5,
            "drawnRed": 26,
            "reportedRed": 33,
            "inferredRed": 1,
            "playerTrialScore": -25,
            "oppTrialScore": 0,
            "playerTotalScore": -33,
            "oppTotalScore": -537,
            "waitTime": 5651.022437762684,
            "responseTime": 1642470124277,
            "catchQuestion": "How many <b class=\"r\">red<\/b> marbles did your opponent report drawing? ",
            "catchKey": -1,
            "catchResponse": -1,
            "catchTime": 1642469965954,
            "trialTime": 0
        },
        {
            "exptPart": "trial",
            "trialNumber": 25,
            "roleCurrent": "sender",
            "marblesSampled": 100,
            "probRed": 0.5,
            "lambda": 5,
            "drawnRed": 59,
            "reportedRed": 100,
            "inferredRed": 91,
            "playerTrialScore": 32,
            "oppTrialScore": -32,
            "playerTotalScore": -1,
            "oppTotalScore": -569,
            "waitTime": 2217.0849637547226,
            "responseTime": 1642470161938,
            "catchQuestion": "How many <b class=\"r\">red<\/b> marbles did your opponent report drawing? ",
            "catchKey": -1,
            "catchResponse": -1,
            "catchTime": 1642470161938,
            "trialTime": 0
        },
        {
            "exptPart": "trial",
            "trialNumber": 26,
            "roleCurrent": "receiver",
            "marblesSampled": 100,
            "probRed": 0.5,
            "lambda": 5,
            "drawnRed": 71,
            "reportedRed": 78,
            "inferredRed": 1,
            "playerTrialScore": -70,
            "oppTrialScore": 0,
            "playerTotalScore": -71,
            "oppTotalScore": -569,
            "waitTime": 5330.234518837599,
            "responseTime": 1642470201698,
            "catchQuestion": "How many <b class=\"r\">red<\/b> marbles did your opponent report drawing? ",
            "catchKey": -1,
            "catchResponse": -1,
            "catchTime": 1642470161938,
            "trialTime": 0
        },
        {
            "exptPart": "trial",
            "trialNumber": 27,
            "roleCurrent": "sender",
            "marblesSampled": 100,
            "probRed": 0.5,
            "lambda": 5,
            "drawnRed": 65,
            "reportedRed": 100,
            "inferredRed": 96,
            "playerTrialScore": 31,
            "oppTrialScore": -31,
            "playerTotalScore": -40,
            "oppTotalScore": -600,
            "waitTime": 2621.9116029619345,
            "responseTime": 1642470252337,
            "catchQuestion": "How many <b class=\"r\">red<\/b> marbles did you actually draw (before any changes)? ",
            "catchKey": 65,
            "catchResponse": 65,
            "catchTime": 1642470252337,
            "trialTime": 0
        },
        {
            "exptPart": "trial",
            "trialNumber": 28,
            "roleCurrent": "receiver",
            "marblesSampled": 100,
            "probRed": 0.5,
            "lambda": 5,
            "drawnRed": 71,
            "reportedRed": 80,
            "inferredRed": 1,
            "playerTrialScore": -70,
            "oppTrialScore": 0,
            "playerTotalScore": -110,
            "oppTotalScore": -600,
            "waitTime": 5451.813115502939,
            "responseTime": 1642470268716,
            "catchQuestion": "How many <b class=\"r\">red<\/b> marbles did you actually draw (before any changes)? ",
            "catchKey": -1,
            "catchResponse": -1,
            "catchTime": 1642470252337,
            "trialTime": 0
        },
        {
            "exptPart": "trial",
            "trialNumber": 29,
            "roleCurrent": "sender",
            "marblesSampled": 100,
            "probRed": 0.5,
            "lambda": 5,
            "drawnRed": 36,
            "reportedRed": 102,
            "inferredRed": 101,
            "playerTrialScore": 65,
            "oppTrialScore": -65,
            "playerTotalScore": -45,
            "oppTotalScore": -665,
            "waitTime": 2523.2094452310084,
            "responseTime": 1642470312171,
            "catchQuestion": "How many <b class=\"r\">red<\/b> marbles did you actually draw (before any changes)? ",
            "catchKey": -1,
            "catchResponse": -1,
            "catchTime": 1642470252337,
            "trialTime": 0
        },
        {
            "exptPart": "trial",
            "trialNumber": 30,
            "roleCurrent": "receiver",
            "marblesSampled": 100,
            "probRed": 0.5,
            "lambda": 5,
            "drawnRed": 74,
            "reportedRed": 78,
            "inferredRed": 1,
            "playerTrialScore": -73,
            "oppTrialScore": 0,
            "playerTotalScore": -118,
            "oppTotalScore": -665,
            "waitTime": 6986.960113429326,
            "responseTime": 1642470322764,
            "catchQuestion": "How many <b class=\"r\">red<\/b> marbles did you actually draw (before any changes)? ",
            "catchKey": -1,
            "catchResponse": -1,
            "catchTime": 1642470322765,
            "trialTime": 0
        },
        {
            "exptPart": "trial",
            "trialNumber": 31,
            "roleCurrent": "sender",
            "marblesSampled": 100,
            "probRed": 0.5,
            "lambda": 5,
            "drawnRed": 33,
            "reportedRed": 102,
            "inferredRed": 95,
            "playerTrialScore": 62,
            "oppTrialScore": -62,
            "playerTotalScore": -56,
            "oppTotalScore": -727,
            "waitTime": 2322.0553914685565,
            "responseTime": 1642470374642,
            "catchQuestion": "How many <b class=\"r\">red<\/b> marbles did you actually draw (before any changes)? ",
            "catchKey": -1,
            "catchResponse": -1,
            "catchTime": 1642470322765,
            "trialTime": 0
        },
        {
            "exptPart": "trial",
            "trialNumber": 32,
            "roleCurrent": "receiver",
            "marblesSampled": 100,
            "probRed": 0.5,
            "lambda": 5,
            "drawnRed": 47,
            "reportedRed": 50,
            "inferredRed": 1,
            "playerTrialScore": -46,
            "oppTrialScore": 0,
            "playerTotalScore": -102,
            "oppTotalScore": -727,
            "waitTime": 7147.451803660969,
            "responseTime": 1642470386075,
            "catchQuestion": "How many <b class=\"r\">red<\/b> marbles did you actually draw (before any changes)? ",
            "catchKey": -1,
            "catchResponse": -1,
            "catchTime": 1642470322765,
            "trialTime": 0
        },
        {
            "exptPart": "trial",
            "trialNumber": 33,
            "roleCurrent": "sender",
            "marblesSampled": 100,
            "probRed": 0.5,
            "lambda": 5,
            "drawnRed": 54,
            "reportedRed": 101,
            "inferredRed": 92,
            "playerTrialScore": 38,
            "oppTrialScore": -38,
            "playerTotalScore": -64,
            "oppTotalScore": -765,
            "waitTime": 2897.73793476991,
            "responseTime": 1642470429334,
            "catchQuestion": "How many <b class=\"r\">red<\/b> marbles did you actually draw (before any changes)? ",
            "catchKey": -1,
            "catchResponse": -1,
            "catchTime": 1642470322765,
            "trialTime": 0
        },
        {
            "exptPart": "trial",
            "trialNumber": 34,
            "roleCurrent": "receiver",
            "marblesSampled": 100,
            "probRed": 0.5,
            "lambda": 5,
            "drawnRed": 26,
            "reportedRed": 28,
            "inferredRed": 1,
            "playerTrialScore": -25,
            "oppTrialScore": 0,
            "playerTotalScore": -89,
            "oppTotalScore": -765,
            "waitTime": 6681.901195180857,
            "responseTime": 1642470443420,
            "catchQuestion": "How many <b class=\"r\">red<\/b> marbles did you actually draw (before any changes)? ",
            "catchKey": -1,
            "catchResponse": -1,
            "catchTime": 1642470322765,
            "trialTime": 0
        },
        {
            "exptPart": "trial",
            "trialNumber": 35,
            "roleCurrent": "sender",
            "marblesSampled": 100,
            "probRed": 0.5,
            "lambda": 5,
            "drawnRed": 62,
            "reportedRed": 100,
            "inferredRed": 96,
            "playerTrialScore": 34,
            "oppTrialScore": -34,
            "playerTotalScore": -55,
            "oppTotalScore": -799,
            "waitTime": 2760.5577427271014,
            "responseTime": 1642470500131,
            "catchQuestion": "How many <b class=\"r\">red<\/b> marbles did you actually draw (before any changes)? ",
            "catchKey": -1,
            "catchResponse": -1,
            "catchTime": 1642470500131,
            "trialTime": 0
        },
        {
            "exptPart": "trial",
            "trialNumber": 36,
            "roleCurrent": "receiver",
            "marblesSampled": 100,
            "probRed": 0.5,
            "lambda": 5,
            "drawnRed": 42,
            "reportedRed": 43,
            "inferredRed": 27,
            "playerTrialScore": -15,
            "oppTrialScore": 0,
            "playerTotalScore": -70,
            "oppTotalScore": -799,
            "waitTime": 5168.692218046717,
            "responseTime": 1642470580887,
            "catchQuestion": "How many <b class=\"r\">red<\/b> marbles did you actually draw (before any changes)? ",
            "catchKey": -1,
            "catchResponse": -1,
            "catchTime": 1642470500131,
            "trialTime": 0
        },
        {
            "exptPart": "trial",
            "trialNumber": 37,
            "roleCurrent": "sender",
            "marblesSampled": 100,
            "probRed": 0.5,
            "lambda": 5,
            "drawnRed": 29,
            "reportedRed": 100,
            "inferredRed": 89,
            "playerTrialScore": 60,
            "oppTrialScore": -60,
            "playerTotalScore": -10,
            "oppTotalScore": -859,
            "waitTime": 2268.78952444045,
            "responseTime": 1642470653470,
            "catchQuestion": "How many <b class=\"r\">red<\/b> marbles did you actually draw (before any changes)? ",
            "catchKey": -1,
            "catchResponse": -1,
            "catchTime": 1642470500131,
            "trialTime": 0
        },
        {
            "exptPart": "trial",
            "trialNumber": 38,
            "roleCurrent": "receiver",
            "marblesSampled": 100,
            "probRed": 0.5,
            "lambda": 5,
            "drawnRed": 57,
            "reportedRed": 62,
            "inferredRed": 31,
            "playerTrialScore": -26,
            "oppTrialScore": 0,
            "playerTotalScore": -36,
            "oppTotalScore": -859,
            "waitTime": 6066.1065160215985,
            "responseTime": 1642470668335,
            "catchQuestion": "How many <b class=\"r\">red<\/b> marbles did you actually draw (before any changes)? ",
            "catchKey": -1,
            "catchResponse": -1,
            "catchTime": 1642470500131,
            "trialTime": 0
        },
        {
            "exptPart": "trial",
            "trialNumber": 39,
            "roleCurrent": "sender",
            "marblesSampled": 100,
            "probRed": 0.5,
            "lambda": 5,
            "drawnRed": 58,
            "reportedRed": 101,
            "inferredRed": 96,
            "playerTrialScore": 38,
            "oppTrialScore": -38,
            "playerTotalScore": 2,
            "oppTotalScore": -897,
            "waitTime": 2816.3058590156515,
            "responseTime": 1642470700492,
            "catchQuestion": "How many <b class=\"r\">red<\/b> marbles did you actually draw (before any changes)? ",
            "catchKey": -1,
            "catchResponse": -1,
            "catchTime": 1642470500131,
            "trialTime": 0
        },
        {
            "exptPart": "trial",
            "trialNumber": 40,
            "roleCurrent": "receiver",
            "marblesSampled": 100,
            "probRed": 0.5,
            "lambda": 5,
            "drawnRed": 6,
            "reportedRed": 13,
            "inferredRed": 1,
            "playerTrialScore": -5,
            "oppTrialScore": 0,
            "playerTotalScore": -3,
            "oppTotalScore": -897,
            "waitTime": 6113.599088429879,
            "responseTime": 1642470713195,
            "catchQuestion": "How many <b class=\"r\">red<\/b> marbles did you actually draw (before any changes)? ",
            "catchKey": -1,
            "catchResponse": -1,
            "catchTime": 1642470713195,
            "trialTime": 0
        },
        {
            "exptPart": "trial",
            "trialNumber": 41,
            "roleCurrent": "sender",
            "marblesSampled": 100,
            "probRed": 0.5,
            "lambda": 5,
            "drawnRed": 10,
            "reportedRed": 101,
            "inferredRed": 97,
            "playerTrialScore": 87,
            "oppTrialScore": -87,
            "playerTotalScore": 84,
            "oppTotalScore": -984,
            "waitTime": 2166.872479229566,
            "responseTime": 1642470773251,
            "catchQuestion": "How many <b class=\"r\">red<\/b> marbles did you actually draw (before any changes)? ",
            "catchKey": -1,
            "catchResponse": -1,
            "catchTime": 1642470713195,
            "trialTime": 0
        },
        {
            "exptPart": "trial",
            "trialNumber": 42,
            "roleCurrent": "receiver",
            "marblesSampled": 100,
            "probRed": 0.5,
            "lambda": 5,
            "drawnRed": 32,
            "reportedRed": 35,
            "inferredRed": 15,
            "playerTrialScore": -17,
            "oppTrialScore": 0,
            "playerTotalScore": 67,
            "oppTotalScore": -984,
            "waitTime": 7051.050171981244,
            "responseTime": 1642470789626,
            "catchQuestion": "How many <b class=\"r\">red<\/b> marbles did you actually draw (before any changes)? ",
            "catchKey": -1,
            "catchResponse": -1,
            "catchTime": 1642470713195,
            "trialTime": 0
        },
        {
            "exptPart": "trial",
            "trialNumber": 43,
            "roleCurrent": "sender",
            "marblesSampled": 100,
            "probRed": 0.5,
            "lambda": 5,
            "drawnRed": 33,
            "reportedRed": 100,
            "inferredRed": 94,
            "playerTrialScore": 61,
            "oppTrialScore": -61,
            "playerTotalScore": 128,
            "oppTotalScore": -1045,
            "waitTime": 3246.560697590606,
            "responseTime": 1642470853348,
            "catchQuestion": "How many <b class=\"r\">red<\/b> marbles did you actually draw (before any changes)? ",
            "catchKey": -1,
            "catchResponse": -1,
            "catchTime": 1642470713195,
            "trialTime": 0
        },
        {
            "exptPart": "trial",
            "trialNumber": 44,
            "roleCurrent": "receiver",
            "marblesSampled": 100,
            "probRed": 0.5,
            "lambda": 5,
            "drawnRed": 28,
            "reportedRed": 34,
            "inferredRed": 12,
            "playerTrialScore": -16,
            "oppTrialScore": 0,
            "playerTotalScore": 112,
            "oppTotalScore": -1045,
            "waitTime": 5517.0262789017725,
            "responseTime": 1642470866250,
            "catchQuestion": "How many <b class=\"r\">red<\/b> marbles did you actually draw (before any changes)? ",
            "catchKey": -1,
            "catchResponse": -1,
            "catchTime": 1642470713195,
            "trialTime": 0
        },
        {
            "exptPart": "trial",
            "trialNumber": 45,
            "roleCurrent": "sender",
            "marblesSampled": 100,
            "probRed": 0.5,
            "lambda": 5,
            "drawnRed": 41,
            "reportedRed": 100,
            "inferredRed": 95,
            "playerTrialScore": 54,
            "oppTrialScore": -54,
            "playerTotalScore": 166,
            "oppTotalScore": -1099,
            "waitTime": 2338.630834080289,
            "responseTime": 1642470910762,
            "catchQuestion": "How many <b class=\"r\">red<\/b> marbles did you actually draw (before any changes)? ",
            "catchKey": -1,
            "catchResponse": -1,
            "catchTime": 1642470910762,
            "trialTime": 0
        },
        {
            "exptPart": "trial",
            "trialNumber": 46,
            "roleCurrent": "receiver",
            "marblesSampled": 100,
            "probRed": 0.5,
            "lambda": 5,
            "drawnRed": 30,
            "reportedRed": 35,
            "inferredRed": 14,
            "playerTrialScore": -16,
            "oppTrialScore": 0,
            "playerTotalScore": 150,
            "oppTotalScore": -1099,
            "waitTime": 7337.898754272992,
            "responseTime": 1642470931571,
            "catchQuestion": "How many <b class=\"r\">red<\/b> marbles did you actually draw (before any changes)? ",
            "catchKey": -1,
            "catchResponse": -1,
            "catchTime": 1642470910762,
            "trialTime": 0
        },
        {
            "exptPart": "trial",
            "trialNumber": 47,
            "roleCurrent": "sender",
            "marblesSampled": 100,
            "probRed": 0.5,
            "lambda": 5,
            "drawnRed": 66,
            "reportedRed": 102,
            "inferredRed": 93,
            "playerTrialScore": 27,
            "oppTrialScore": -27,
            "playerTotalScore": 177,
            "oppTotalScore": -1126,
            "waitTime": 2067.2760430717226,
            "responseTime": 1642470960788,
            "catchQuestion": "How many <b class=\"r\">red<\/b> marbles did you actually draw (before any changes)? ",
            "catchKey": -1,
            "catchResponse": -1,
            "catchTime": 1642470910762,
            "trialTime": 0
        },
        {
            "exptPart": "trial",
            "trialNumber": 48,
            "roleCurrent": "receiver",
            "marblesSampled": 100,
            "probRed": 0.5,
            "lambda": 5,
            "drawnRed": 61,
            "reportedRed": 70,
            "inferredRed": 37,
            "playerTrialScore": -24,
            "oppTrialScore": 0,
            "playerTotalScore": 153,
            "oppTotalScore": -1126,
            "waitTime": 5263.765678550092,
            "responseTime": 1642470974438,
            "catchQuestion": "How many <b class=\"r\">red<\/b> marbles did your opponent report drawing? ",
            "catchKey": 70,
            "catchResponse": 70,
            "catchTime": 1642470974438,
            "trialTime": 0
        },
        {
            "exptPart": "trial",
            "trialNumber": 49,
            "roleCurrent": "sender",
            "marblesSampled": 100,
            "probRed": 0.5,
            "lambda": 5,
            "drawnRed": 67,
            "reportedRed": 100,
            "inferredRed": 92,
            "playerTrialScore": 25,
            "oppTrialScore": -25,
            "playerTotalScore": 178,
            "oppTotalScore": -1151,
            "waitTime": 2303.2146261992425,
            "responseTime": 1642471008557,
            "catchQuestion": "How many <b class=\"r\">red<\/b> marbles did your opponent report drawing? ",
            "catchKey": -1,
            "catchResponse": -1,
            "catchTime": 1642470974438,
            "trialTime": 0
        },
        {
            "exptPart": "trial",
            "trialNumber": 50,
            "roleCurrent": "receiver",
            "marblesSampled": 100,
            "probRed": 0.5,
            "lambda": 5,
            "drawnRed": 53,
            "reportedRed": 55,
            "inferredRed": 32,
            "playerTrialScore": -21,
            "oppTrialScore": 0,
            "playerTotalScore": 157,
            "oppTotalScore": -1151,
            "waitTime": 6596.258400736809,
            "responseTime": 1642471023708,
            "catchQuestion": "How many <b class=\"r\">red<\/b> marbles did your opponent report drawing? ",
            "catchKey": -1,
            "catchResponse": -1,
            "catchTime": 1642471023708,
            "trialTime": 0
        },
        {
            "exptPart": "trial",
            "trialNumber": 51,
            "roleCurrent": "sender",
            "marblesSampled": 100,
            "probRed": 0.5,
            "lambda": 5,
            "drawnRed": 65,
            "reportedRed": 100,
            "inferredRed": 97,
            "playerTrialScore": 32,
            "oppTrialScore": -32,
            "playerTotalScore": 189,
            "oppTotalScore": -1183,
            "waitTime": 3186.250029346291,
            "responseTime": 1642471087362,
            "catchQuestion": "How many <b class=\"r\">red<\/b> marbles did your opponent report drawing? ",
            "catchKey": -1,
            "catchResponse": -1,
            "catchTime": 1642471023708,
            "trialTime": 0
        },
        {
            "exptPart": "trial",
            "trialNumber": 52,
            "roleCurrent": "receiver",
            "marblesSampled": 100,
            "probRed": 0.5,
            "lambda": 5,
            "drawnRed": 47,
            "reportedRed": 51,
            "inferredRed": 16,
            "playerTrialScore": -31,
            "oppTrialScore": 0,
            "playerTotalScore": 158,
            "oppTotalScore": -1183,
            "waitTime": 5783.447883887797,
            "responseTime": 1642471102579,
            "catchQuestion": "How many <b class=\"r\">red<\/b> marbles did your opponent report drawing? ",
            "catchKey": 51,
            "catchResponse": 51,
            "catchTime": 1642471102579,
            "trialTime": 0
        },
        {
            "exptPart": "trial",
            "trialNumber": 53,
            "roleCurrent": "sender",
            "marblesSampled": 100,
            "probRed": 0.5,
            "lambda": 5,
            "drawnRed": 83,
            "reportedRed": 100,
            "inferredRed": 93,
            "playerTrialScore": 10,
            "oppTrialScore": -10,
            "playerTotalScore": 168,
            "oppTotalScore": -1193,
            "waitTime": 2417.9012510146476,
            "responseTime": 1642471133046,
            "catchQuestion": "How many <b class=\"r\">red<\/b> marbles did your opponent report drawing? ",
            "catchKey": -1,
            "catchResponse": -1,
            "catchTime": 1642471102579,
            "trialTime": 0
        },
        {
            "exptPart": "trial",
            "trialNumber": 54,
            "roleCurrent": "receiver",
            "marblesSampled": 100,
            "probRed": 0.5,
            "lambda": 5,
            "drawnRed": 8,
            "reportedRed": 14,
            "inferredRed": 0,
            "playerTrialScore": -8,
            "oppTrialScore": 0,
            "playerTotalScore": 160,
            "oppTotalScore": -1193,
            "waitTime": 6576.197054003506,
            "responseTime": 1642471144275,
            "catchQuestion": "How many <b class=\"r\">red<\/b> marbles did your opponent report drawing? ",
            "catchKey": -1,
            "catchResponse": -1,
            "catchTime": 1642471102579,
            "trialTime": 0
        },
        {
            "exptPart": "trial",
            "trialNumber": 55,
            "roleCurrent": "sender",
            "marblesSampled": 100,
            "probRed": 0.5,
            "lambda": 5,
            "drawnRed": 39,
            "reportedRed": 102,
            "inferredRed": 100,
            "playerTrialScore": 61,
            "oppTrialScore": -61,
            "playerTotalScore": 221,
            "oppTotalScore": -1254,
            "waitTime": 2706.753842285588,
            "responseTime": 1642471187539,
            "catchQuestion": "How many <b class=\"r\">red<\/b> marbles did your opponent report drawing? ",
            "catchKey": -1,
            "catchResponse": -1,
            "catchTime": 1642471187539,
            "trialTime": 0
        },
        {
            "exptPart": "trial",
            "trialNumber": 56,
            "roleCurrent": "receiver",
            "marblesSampled": 100,
            "probRed": 0.5,
            "lambda": 5,
            "drawnRed": 67,
            "reportedRed": 72,
            "inferredRed": 29,
            "playerTrialScore": -38,
            "oppTrialScore": 0,
            "playerTotalScore": 183,
            "oppTotalScore": -1254,
            "waitTime": 5890.499526764461,
            "responseTime": 1642471202590,
            "catchQuestion": "How many <b class=\"r\">red<\/b> marbles did your opponent report drawing? ",
            "catchKey": -1,
            "catchResponse": -1,
            "catchTime": 1642471187539,
            "trialTime": 0
        },
        {
            "exptPart": "trial",
            "trialNumber": 57,
            "roleCurrent": "sender",
            "marblesSampled": 100,
            "probRed": 0.5,
            "lambda": 5,
            "drawnRed": 53,
            "reportedRed": 101,
            "inferredRed": 99,
            "playerTrialScore": 46,
            "oppTrialScore": -46,
            "playerTotalScore": 229,
            "oppTotalScore": -1300,
            "waitTime": 2400.0214002784187,
            "responseTime": 1642471244158,
            "catchQuestion": "How many <b class=\"r\">red<\/b> marbles did your opponent report drawing? ",
            "catchKey": -1,
            "catchResponse": -1,
            "catchTime": 1642471187539,
            "trialTime": 0
        },
        {
            "exptPart": "trial",
            "trialNumber": 58,
            "roleCurrent": "receiver",
            "marblesSampled": 100,
            "probRed": 0.5,
            "lambda": 5,
            "drawnRed": 43,
            "reportedRed": 45,
            "inferredRed": 22,
            "playerTrialScore": -21,
            "oppTrialScore": 0,
            "playerTotalScore": 208,
            "oppTotalScore": -1300,
            "waitTime": 6202.383415058761,
            "responseTime": 1642471265378,
            "catchQuestion": "How many <b class=\"r\">red<\/b> marbles did your opponent report drawing? ",
            "catchKey": -1,
            "catchResponse": -1,
            "catchTime": 1642471187539,
            "trialTime": 0
        },
        {
            "exptPart": "trial",
            "trialNumber": 59,
            "roleCurrent": "sender",
            "marblesSampled": 100,
            "probRed": 0.5,
            "lambda": 5,
            "drawnRed": 88,
            "reportedRed": 100,
            "inferredRed": 98,
            "playerTrialScore": 10,
            "oppTrialScore": -10,
            "playerTotalScore": 218,
            "oppTotalScore": -1310,
            "waitTime": 2695.233703989296,
            "responseTime": 1642471284891,
            "catchQuestion": "How many <b class=\"r\">red<\/b> marbles did your opponent report drawing? ",
            "catchKey": -1,
            "catchResponse": -1,
            "catchTime": 1642471187539,
            "trialTime": 0
        },
        {
            "exptPart": "trial",
            "trialNumber": 60,
            "roleCurrent": "receiver",
            "marblesSampled": 100,
            "probRed": 0.5,
            "lambda": 5,
            "drawnRed": 49,
            "reportedRed": 58,
            "inferredRed": 27,
            "playerTrialScore": -22,
            "oppTrialScore": 0,
            "playerTotalScore": 196,
            "oppTotalScore": -1310,
            "waitTime": 5854.407879351145,
            "responseTime": 1642471304631,
            "catchQuestion": "How many <b class=\"r\">red<\/b> marbles did your opponent report drawing? ",
            "catchKey": -1,
            "catchResponse": -1,
            "catchTime": 1642471304631,
            "trialTime": 0
        },
        {
            "exptPart": "trial",
            "trialNumber": 61,
            "roleCurrent": "sender",
            "marblesSampled": 100,
            "probRed": 0.5,
            "lambda": 5,
            "drawnRed": 74,
            "reportedRed": 100,
            "inferredRed": 96,
            "playerTrialScore": 22,
            "oppTrialScore": -22,
            "playerTotalScore": 218,
            "oppTotalScore": -1332,
            "waitTime": 2659.074793129182,
            "responseTime": 1642471367108,
            "catchQuestion": "How many <b class=\"r\">red<\/b> marbles did your opponent report drawing? ",
            "catchKey": -1,
            "catchResponse": -1,
            "catchTime": 1642471304631,
            "trialTime": 0
        },
        {
            "exptPart": "trial",
            "trialNumber": 62,
            "roleCurrent": "receiver",
            "marblesSampled": 100,
            "probRed": 0.5,
            "lambda": 5,
            "drawnRed": 33,
            "reportedRed": 35,
            "inferredRed": 8,
            "playerTrialScore": -25,
            "oppTrialScore": 0,
            "playerTotalScore": 193,
            "oppTotalScore": -1332,
            "waitTime": 6792.439588878075,
            "responseTime": 1642471393581,
            "catchQuestion": "How many <b class=\"r\">red<\/b> marbles did your opponent report drawing? ",
            "catchKey": -1,
            "catchResponse": -1,
            "catchTime": 1642471304631,
            "trialTime": 0
        },
        {
            "exptPart": "trial",
            "trialNumber": 63,
            "roleCurrent": "sender",
            "marblesSampled": 100,
            "probRed": 0.5,
            "lambda": 5,
            "drawnRed": 17,
            "reportedRed": 101,
            "inferredRed": 93,
            "playerTrialScore": 76,
            "oppTrialScore": -76,
            "playerTotalScore": 269,
            "oppTotalScore": -1408,
            "waitTime": 2495.023802503387,
            "responseTime": 1642471451361,
            "catchQuestion": "How many <b class=\"r\">red<\/b> marbles did your opponent report drawing? ",
            "catchKey": -1,
            "catchResponse": -1,
            "catchTime": 1642471304631,
            "trialTime": 0
        },
        {
            "exptPart": "trial",
            "trialNumber": 64,
            "roleCurrent": "receiver",
            "marblesSampled": 100,
            "probRed": 0.5,
            "lambda": 5,
            "drawnRed": 24,
            "reportedRed": 28,
            "inferredRed": 1,
            "playerTrialScore": -23,
            "oppTrialScore": 0,
            "playerTotalScore": 246,
            "oppTotalScore": -1408,
            "waitTime": 5230.170577459663,
            "responseTime": 1642471470431,
            "catchQuestion": "How many <b class=\"r\">red<\/b> marbles did your opponent report drawing? ",
            "catchKey": -1,
            "catchResponse": -1,
            "catchTime": 1642471304631,
            "trialTime": 0
        },
        {
            "exptPart": "trial",
            "trialNumber": 65,
            "roleCurrent": "sender",
            "marblesSampled": 100,
            "probRed": 0.5,
            "lambda": 5,
            "drawnRed": 34,
            "reportedRed": 101,
            "inferredRed": 98,
            "playerTrialScore": 64,
            "oppTrialScore": -64,
            "playerTotalScore": 310,
            "oppTotalScore": -1472,
            "waitTime": 2261.818647206267,
            "responseTime": 1642471514487,
            "catchQuestion": "How many <b class=\"r\">red<\/b> marbles did your opponent report drawing? ",
            "catchKey": -1,
            "catchResponse": -1,
            "catchTime": 1642471514488,
            "trialTime": 0
        },
        {
            "exptPart": "trial",
            "trialNumber": 66,
            "roleCurrent": "receiver",
            "marblesSampled": 100,
            "probRed": 0.5,
            "lambda": 5,
            "drawnRed": 84,
            "reportedRed": 91,
            "inferredRed": 52,
            "playerTrialScore": -32,
            "oppTrialScore": 0,
            "playerTotalScore": 278,
            "oppTotalScore": -1472,
            "waitTime": 6877.152856726247,
            "responseTime": 1642471535358,
            "catchQuestion": "How many <b class=\"r\">red<\/b> marbles did your opponent report drawing? ",
            "catchKey": -1,
            "catchResponse": -1,
            "catchTime": 1642471514488,
            "trialTime": 0
        },
        {
            "exptPart": "trial",
            "trialNumber": 67,
            "roleCurrent": "sender",
            "marblesSampled": 100,
            "probRed": 0.5,
            "lambda": 5,
            "drawnRed": 50,
            "reportedRed": 101,
            "inferredRed": 97,
            "playerTrialScore": 47,
            "oppTrialScore": -47,
            "playerTotalScore": 325,
            "oppTotalScore": -1519,
            "waitTime": 2086.5135102350087,
            "responseTime": 1642471576975,
            "catchQuestion": "How many <b class=\"r\">red<\/b> marbles did your opponent report drawing? ",
            "catchKey": -1,
            "catchResponse": -1,
            "catchTime": 1642471514488,
            "trialTime": 0
        },
        {
            "exptPart": "trial",
            "trialNumber": 68,
            "roleCurrent": "receiver",
            "marblesSampled": 100,
            "probRed": 0.5,
            "lambda": 5,
            "drawnRed": 29,
            "reportedRed": 32,
            "inferredRed": 3,
            "playerTrialScore": -26,
            "oppTrialScore": 0,
            "playerTotalScore": 299,
            "oppTotalScore": -1519,
            "waitTime": 5692.752046778542,
            "responseTime": 1642471589852,
            "catchQuestion": "How many <b class=\"r\">red<\/b> marbles did your opponent report drawing? ",
            "catchKey": -1,
            "catchResponse": -1,
            "catchTime": 1642471514488,
            "trialTime": 0
        },
        {
            "exptPart": "trial",
            "trialNumber": 69,
            "roleCurrent": "sender",
            "marblesSampled": 100,
            "probRed": 0.5,
            "lambda": 5,
            "drawnRed": 48,
            "reportedRed": 102,
            "inferredRed": 99,
            "playerTrialScore": 51,
            "oppTrialScore": -51,
            "playerTotalScore": 350,
            "oppTotalScore": -1570,
            "waitTime": 2378.5254238927687,
            "responseTime": 1642471648121,
            "catchQuestion": "How many <b class=\"r\">red<\/b> marbles did your opponent report drawing? ",
            "catchKey": -1,
            "catchResponse": -1,
            "catchTime": 1642471514488,
            "trialTime": 0
        },
        {
            "exptPart": "trial",
            "trialNumber": 70,
            "roleCurrent": "receiver",
            "marblesSampled": 100,
            "probRed": 0.5,
            "lambda": 5,
            "drawnRed": 54,
            "reportedRed": 60,
            "inferredRed": 29,
            "playerTrialScore": -25,
            "oppTrialScore": 0,
            "playerTotalScore": 325,
            "oppTotalScore": -1570,
            "waitTime": 5901.945226016484,
            "responseTime": 1642471669159,
            "catchQuestion": "How many <b class=\"r\">red<\/b> marbles did your opponent report drawing? ",
            "catchKey": -1,
            "catchResponse": -1,
            "catchTime": 1642471669159,
            "trialTime": 0
        },
        {
            "exptPart": "trial",
            "trialNumber": 71,
            "roleCurrent": "sender",
            "marblesSampled": 100,
            "probRed": 0.5,
            "lambda": 5,
            "drawnRed": 29,
            "reportedRed": 100,
            "inferredRed": 98,
            "playerTrialScore": 69,
            "oppTrialScore": -69,
            "playerTotalScore": 394,
            "oppTotalScore": -1639,
            "waitTime": 3038.714821401587,
            "responseTime": 1642471732530,
            "catchQuestion": "How many <b class=\"r\">red<\/b> marbles did your opponent report drawing? ",
            "catchKey": -1,
            "catchResponse": -1,
            "catchTime": 1642471669159,
            "trialTime": 0
        },
        {
            "exptPart": "trial",
            "trialNumber": 72,
            "roleCurrent": "receiver",
            "marblesSampled": 100,
            "probRed": 0.5,
            "lambda": 5,
            "drawnRed": 21,
            "reportedRed": 27,
            "inferredRed": 1,
            "playerTrialScore": -20,
            "oppTrialScore": 0,
            "playerTotalScore": 374,
            "oppTotalScore": -1639,
            "waitTime": 7009.88338775716,
            "responseTime": 1642471750278,
            "catchQuestion": "How many <b class=\"r\">red<\/b> marbles did your opponent report drawing? ",
            "catchKey": -1,
            "catchResponse": -1,
            "catchTime": 1642471669159,
            "trialTime": 0
        },
        {
            "exptPart": "trial",
            "trialNumber": 73,
            "roleCurrent": "sender",
            "marblesSampled": 100,
            "probRed": 0.5,
            "lambda": 5,
            "drawnRed": 74,
            "reportedRed": 100,
            "inferredRed": 95,
            "playerTrialScore": 21,
            "oppTrialScore": -21,
            "playerTotalScore": 395,
            "oppTotalScore": -1660,
            "waitTime": 2538.334958842713,
            "responseTime": 1642471777518,
            "catchQuestion": "How many <b class=\"r\">red<\/b> marbles did your opponent report drawing? ",
            "catchKey": -1,
            "catchResponse": -1,
            "catchTime": 1642471669159,
            "trialTime": 0
        },
        {
            "exptPart": "trial",
            "trialNumber": 74,
            "roleCurrent": "receiver",
            "marblesSampled": 100,
            "probRed": 0.5,
            "lambda": 5,
            "drawnRed": 40,
            "reportedRed": 43,
            "inferredRed": 14,
            "playerTrialScore": -26,
            "oppTrialScore": 0,
            "playerTotalScore": 369,
            "oppTotalScore": -1660,
            "waitTime": 5384.069937218164,
            "responseTime": 1642471797389,
            "catchQuestion": "How many <b class=\"r\">red<\/b> marbles did your opponent report drawing? ",
            "catchKey": -1,
            "catchResponse": -1,
            "catchTime": 1642471669159,
            "trialTime": 0
        },
        {
            "exptPart": "trial",
            "trialNumber": 75,
            "roleCurrent": "sender",
            "marblesSampled": 100,
            "probRed": 0.5,
            "lambda": 5,
            "drawnRed": 80,
            "reportedRed": 100,
            "inferredRed": 97,
            "playerTrialScore": 17,
            "oppTrialScore": -17,
            "playerTotalScore": 386,
            "oppTotalScore": -1677,
            "waitTime": 2759.2049118191458,
            "responseTime": 1642471825237,
            "catchQuestion": "How many <b class=\"r\">red<\/b> marbles did your opponent report drawing? ",
            "catchKey": -1,
            "catchResponse": -1,
            "catchTime": 1642471825237,
            "trialTime": 0
        },
        {
            "exptPart": "trial",
            "trialNumber": 76,
            "roleCurrent": "receiver",
            "marblesSampled": 100,
            "probRed": 0.5,
            "lambda": 5,
            "drawnRed": 41,
            "reportedRed": 47,
            "inferredRed": 12,
            "playerTrialScore": -29,
            "oppTrialScore": 0,
            "playerTotalScore": 357,
            "oppTotalScore": -1677,
            "waitTime": 5182.994302494539,
            "responseTime": 1642471847256,
            "catchQuestion": "How many <b class=\"r\">red<\/b> marbles did your opponent report drawing? ",
            "catchKey": 47,
            "catchResponse": 47,
            "catchTime": 1642471847256,
            "trialTime": 0
        },
        {
            "exptPart": "trial",
            "trialNumber": 77,
            "roleCurrent": "sender",
            "marblesSampled": 100,
            "probRed": 0.5,
            "lambda": 5,
            "drawnRed": 61,
            "reportedRed": 100,
            "inferredRed": 96,
            "playerTrialScore": 35,
            "oppTrialScore": -35,
            "playerTotalScore": 392,
            "oppTotalScore": -1712,
            "waitTime": 2590.1914878927423,
            "responseTime": 1642471885191,
            "catchQuestion": "How many <b class=\"r\">red<\/b> marbles did your opponent report drawing? ",
            "catchKey": -1,
            "catchResponse": -1,
            "catchTime": 1642471847256,
            "trialTime": 0
        },
        {
            "exptPart": "trial",
            "trialNumber": 78,
            "roleCurrent": "receiver",
            "marblesSampled": 100,
            "probRed": 0.5,
            "lambda": 5,
            "drawnRed": 31,
            "reportedRed": 34,
            "inferredRed": 3,
            "playerTrialScore": -28,
            "oppTrialScore": 0,
            "playerTotalScore": 364,
            "oppTotalScore": -1712,
            "waitTime": 5393.191946737448,
            "responseTime": 1642471896319,
            "catchQuestion": "How many <b class=\"r\">red<\/b> marbles did your opponent report drawing? ",
            "catchKey": -1,
            "catchResponse": -1,
            "catchTime": 1642471847256,
            "trialTime": 0
        },
        {
            "exptPart": "trial",
            "trialNumber": 79,
            "roleCurrent": "sender",
            "marblesSampled": 100,
            "probRed": 0.5,
            "lambda": 5,
            "drawnRed": 47,
            "reportedRed": 100,
            "inferredRed": 93,
            "playerTrialScore": 46,
            "oppTrialScore": -46,
            "playerTotalScore": 410,
            "oppTotalScore": -1758,
            "waitTime": 2822.93293690078,
            "responseTime": 1642471969333,
            "catchQuestion": "How many <b class=\"r\">red<\/b> marbles did your opponent report drawing? ",
            "catchKey": -1,
            "catchResponse": -1,
            "catchTime": 1642471847256,
            "trialTime": 0
        },
        {
            "exptPart": "trial",
            "trialNumber": 80,
            "roleCurrent": "receiver",
            "marblesSampled": 100,
            "probRed": 0.5,
            "lambda": 5,
            "drawnRed": 33,
            "reportedRed": 36,
            "inferredRed": 3,
            "playerTrialScore": -30,
            "oppTrialScore": 0,
            "playerTotalScore": 380,
            "oppTotalScore": -1758,
            "waitTime": 5696.520486637336,
            "responseTime": 1642471981519,
            "catchQuestion": "How many <b class=\"r\">red<\/b> marbles did your opponent report drawing? ",
            "catchKey": 36,
            "catchResponse": 36,
            "catchTime": 1642471981519,
            "trialTime": 0
        },
        {
            "exptPart": "trial",
            "trialNumber": 81,
            "roleCurrent": "sender",
            "marblesSampled": 100,
            "probRed": 0.5,
            "lambda": 5,
            "drawnRed": 69,
            "reportedRed": 100,
            "inferredRed": 96,
            "playerTrialScore": 27,
            "oppTrialScore": -27,
            "playerTotalScore": 407,
            "oppTotalScore": -1785,
            "waitTime": 2740.2651129846636,
            "responseTime": 1642472018661,
            "catchQuestion": "How many <b class=\"r\">red<\/b> marbles did your opponent report drawing? ",
            "catchKey": -1,
            "catchResponse": -1,
            "catchTime": 1642471981519,
            "trialTime": 0
        },
        {
            "exptPart": "trial",
            "trialNumber": 82,
            "roleCurrent": "receiver",
            "marblesSampled": 100,
            "probRed": 0.5,
            "lambda": 5,
            "drawnRed": 37,
            "reportedRed": 44,
            "inferredRed": 23,
            "playerTrialScore": -14,
            "oppTrialScore": 0,
            "playerTotalScore": 393,
            "oppTotalScore": -1785,
            "waitTime": 6181.52095825112,
            "responseTime": 1642472030724,
            "catchQuestion": "How many <b class=\"r\">red<\/b> marbles did your opponent report drawing? ",
            "catchKey": -1,
            "catchResponse": -1,
            "catchTime": 1642471981519,
            "trialTime": 0
        },
        {
            "exptPart": "trial",
            "trialNumber": 83,
            "roleCurrent": "sender",
            "marblesSampled": 100,
            "probRed": 0.5,
            "lambda": 5,
            "drawnRed": 26,
            "reportedRed": 102,
            "inferredRed": 97,
            "playerTrialScore": 71,
            "oppTrialScore": -71,
            "playerTotalScore": 464,
            "oppTotalScore": -1856,
            "waitTime": 3230.138981510176,
            "responseTime": 1642472084725,
            "catchQuestion": "How many <b class=\"r\">red<\/b> marbles did your opponent report drawing? ",
            "catchKey": -1,
            "catchResponse": -1,
            "catchTime": 1642471981519,
            "trialTime": 0
        },
        {
            "exptPart": "trial",
            "trialNumber": 84,
            "roleCurrent": "receiver",
            "marblesSampled": 100,
            "probRed": 0.5,
            "lambda": 5,
            "drawnRed": 47,
            "reportedRed": 49,
            "inferredRed": 26,
            "playerTrialScore": -21,
            "oppTrialScore": 0,
            "playerTotalScore": 443,
            "oppTotalScore": -1856,
            "waitTime": 7280.524735452944,
            "responseTime": 1642472101010,
            "catchQuestion": "How many <b class=\"r\">red<\/b> marbles did your opponent report drawing? ",
            "catchKey": 49,
            "catchResponse": 49,
            "catchTime": 1642472101010,
            "trialTime": 0
        },
        {
            "exptPart": "trial",
            "trialNumber": 85,
            "roleCurrent": "sender",
            "marblesSampled": 100,
            "probRed": 0.5,
            "lambda": 5,
            "drawnRed": 53,
            "reportedRed": 100,
            "inferredRed": 96,
            "playerTrialScore": 43,
            "oppTrialScore": -43,
            "playerTotalScore": 486,
            "oppTotalScore": -1899,
            "waitTime": 2689.9473936201393,
            "responseTime": 1642472142922,
            "catchQuestion": "How many <b class=\"r\">red<\/b> marbles did you actually draw (before any changes)? ",
            "catchKey": 53,
            "catchResponse": 53,
            "catchTime": 1642472142922,
            "trialTime": 0
        },
        {
            "exptPart": "trial",
            "trialNumber": 86,
            "roleCurrent": "receiver",
            "marblesSampled": 100,
            "probRed": 0.5,
            "lambda": 5,
            "drawnRed": 47,
            "reportedRed": 50,
            "inferredRed": 25,
            "playerTrialScore": -22,
            "oppTrialScore": 0,
            "playerTotalScore": 464,
            "oppTotalScore": -1899,
            "waitTime": 7459.786685991357,
            "responseTime": 1642472165016,
            "catchQuestion": "How many <b class=\"r\">red<\/b> marbles did your opponent report drawing? ",
            "catchKey": 50,
            "catchResponse": 50,
            "catchTime": 1642472165016,
            "trialTime": 0
        },
        {
            "exptPart": "trial",
            "trialNumber": 87,
            "roleCurrent": "sender",
            "marblesSampled": 100,
            "probRed": 0.5,
            "lambda": 5,
            "drawnRed": 30,
            "reportedRed": 100,
            "inferredRed": 95,
            "playerTrialScore": 65,
            "oppTrialScore": -65,
            "playerTotalScore": 529,
            "oppTotalScore": -1964,
            "waitTime": 2878.4038036730926,
            "responseTime": 1642472218658,
            "catchQuestion": "How many <b class=\"r\">red<\/b> marbles did your opponent report drawing? ",
            "catchKey": -1,
            "catchResponse": -1,
            "catchTime": 1642472165016,
            "trialTime": 0
        },
        {
            "exptPart": "trial",
            "trialNumber": 88,
            "roleCurrent": "receiver",
            "marblesSampled": 100,
            "probRed": 0.5,
            "lambda": 5,
            "drawnRed": 76,
            "reportedRed": 80,
            "inferredRed": 35,
            "playerTrialScore": -41,
            "oppTrialScore": 0,
            "playerTotalScore": 488,
            "oppTotalScore": -1964,
            "waitTime": 6604.201944730599,
            "responseTime": 1642472233519,
            "catchQuestion": "How many <b class=\"r\">red<\/b> marbles did your opponent report drawing? ",
            "catchKey": 80,
            "catchResponse": 80,
            "catchTime": 1642472233519,
            "trialTime": 0
        },
        {
            "exptPart": "trial",
            "trialNumber": 89,
            "roleCurrent": "sender",
            "marblesSampled": 100,
            "probRed": 0.5,
            "lambda": 5,
            "drawnRed": 54,
            "reportedRed": 100,
            "inferredRed": 95,
            "playerTrialScore": 41,
            "oppTrialScore": -41,
            "playerTotalScore": 529,
            "oppTotalScore": -2005,
            "waitTime": 2976.598454601659,
            "responseTime": 1642472276598,
            "catchQuestion": "How many <b class=\"r\">red<\/b> marbles did your opponent report drawing? ",
            "catchKey": -1,
            "catchResponse": -1,
            "catchTime": 1642472233519,
            "trialTime": 0
        },
        {
            "exptPart": "trial",
            "trialNumber": 90,
            "roleCurrent": "receiver",
            "marblesSampled": 100,
            "probRed": 0.5,
            "lambda": 5,
            "drawnRed": 81,
            "reportedRed": 95,
            "inferredRed": 48,
            "playerTrialScore": -33,
            "oppTrialScore": 0,
            "playerTotalScore": 496,
            "oppTotalScore": -2005,
            "waitTime": 6951.6420597865335,
            "responseTime": 1642472299058,
            "catchQuestion": "How many <b class=\"r\">red<\/b> marbles did your opponent report drawing? ",
            "catchKey": -1,
            "catchResponse": -1,
            "catchTime": 1642472299058,
            "trialTime": 0
        },
        {
            "exptPart": "trial",
            "trialNumber": 91,
            "roleCurrent": "sender",
            "marblesSampled": 100,
            "probRed": 0.5,
            "lambda": 5,
            "drawnRed": 53,
            "reportedRed": 101,
            "inferredRed": 99,
            "playerTrialScore": 46,
            "oppTrialScore": -46,
            "playerTotalScore": 542,
            "oppTotalScore": -2051,
            "waitTime": 2734.2796978869956,
            "responseTime": 1642472336993,
            "catchQuestion": "How many <b class=\"r\">red<\/b> marbles did your opponent report drawing? ",
            "catchKey": -1,
            "catchResponse": -1,
            "catchTime": 1642472299058,
            "trialTime": 0
        },
        {
            "exptPart": "trial",
            "trialNumber": 92,
            "roleCurrent": "receiver",
            "marblesSampled": 100,
            "probRed": 0.5,
            "lambda": 5,
            "drawnRed": 63,
            "reportedRed": 66,
            "inferredRed": 33,
            "playerTrialScore": -30,
            "oppTrialScore": 0,
            "playerTotalScore": 512,
            "oppTotalScore": -2051,
            "waitTime": 5256.340855261749,
            "responseTime": 1642472347293,
            "catchQuestion": "How many <b class=\"r\">red<\/b> marbles did your opponent report drawing? ",
            "catchKey": -1,
            "catchResponse": -1,
            "catchTime": 1642472299058,
            "trialTime": 0
        },
        {
            "exptPart": "trial",
            "trialNumber": 93,
            "roleCurrent": "sender",
            "marblesSampled": 100,
            "probRed": 0.5,
            "lambda": 5,
            "drawnRed": 69,
            "reportedRed": 100,
            "inferredRed": 94,
            "playerTrialScore": 25,
            "oppTrialScore": -25,
            "playerTotalScore": 537,
            "oppTotalScore": -2076,
            "waitTime": 2463.4815097508917,
            "responseTime": 1642472377521,
            "catchQuestion": "How many <b class=\"r\">red<\/b> marbles did your opponent report drawing? ",
            "catchKey": -1,
            "catchResponse": -1,
            "catchTime": 1642472299058,
            "trialTime": 0
        },
        {
            "exptPart": "trial",
            "trialNumber": 94,
            "roleCurrent": "receiver",
            "marblesSampled": 100,
            "probRed": 0.5,
            "lambda": 5,
            "drawnRed": 3,
            "reportedRed": 6,
            "inferredRed": 0,
            "playerTrialScore": -3,
            "oppTrialScore": 0,
            "playerTotalScore": 534,
            "oppTotalScore": -2076,
            "waitTime": 6322.159175418518,
            "responseTime": 1642472388756,
            "catchQuestion": "How many <b class=\"r\">red<\/b> marbles did your opponent report drawing? ",
            "catchKey": -1,
            "catchResponse": -1,
            "catchTime": 1642472299058,
            "trialTime": 0
        },
        {
            "exptPart": "trial",
            "trialNumber": 95,
            "roleCurrent": "sender",
            "marblesSampled": 100,
            "probRed": 0.5,
            "lambda": 5,
            "drawnRed": 70,
            "reportedRed": 100,
            "inferredRed": 97,
            "playerTrialScore": 27,
            "oppTrialScore": -27,
            "playerTotalScore": 561,
            "oppTotalScore": -2103,
            "waitTime": 2487.257444801756,
            "responseTime": 1642472419608,
            "catchQuestion": "How many <b class=\"r\">red<\/b> marbles did your opponent report drawing? ",
            "catchKey": -1,
            "catchResponse": -1,
            "catchTime": 1642472419608,
            "trialTime": 0
        },
        {
            "exptPart": "trial",
            "trialNumber": 96,
            "roleCurrent": "receiver",
            "marblesSampled": 100,
            "probRed": 0.5,
            "lambda": 5,
            "drawnRed": 40,
            "reportedRed": 43,
            "inferredRed": 21,
            "playerTrialScore": -19,
            "oppTrialScore": 0,
            "playerTotalScore": 542,
            "oppTotalScore": -2103,
            "waitTime": 6607.479039630619,
            "responseTime": 1642472433338,
            "catchQuestion": "How many <b class=\"r\">red<\/b> marbles did your opponent report drawing? ",
            "catchKey": -1,
            "catchResponse": -1,
            "catchTime": 1642472419608,
            "trialTime": 0
        },
        {
            "exptPart": "trial",
            "trialNumber": 97,
            "roleCurrent": "sender",
            "marblesSampled": 100,
            "probRed": 0.5,
            "lambda": 5,
            "drawnRed": 61,
            "reportedRed": 100,
            "inferredRed": 96,
            "playerTrialScore": 35,
            "oppTrialScore": -35,
            "playerTotalScore": 577,
            "oppTotalScore": -2138,
            "waitTime": 3031.8928528254455,
            "responseTime": 1642472466465,
            "catchQuestion": "How many <b class=\"r\">red<\/b> marbles did your opponent report drawing? ",
            "catchKey": -1,
            "catchResponse": -1,
            "catchTime": 1642472419608,
            "trialTime": 0
        },
        {
            "exptPart": "trial",
            "trialNumber": 98,
            "roleCurrent": "receiver",
            "marblesSampled": 100,
            "probRed": 0.5,
            "lambda": 5,
            "drawnRed": 8,
            "reportedRed": 11,
            "inferredRed": 0,
            "playerTrialScore": -8,
            "oppTrialScore": 0,
            "playerTotalScore": 569,
            "oppTotalScore": -2138,
            "waitTime": 5900.873149104511,
            "responseTime": 1642472476785,
            "catchQuestion": "How many <b class=\"r\">red<\/b> marbles did your opponent report drawing? ",
            "catchKey": -1,
            "catchResponse": -1,
            "catchTime": 1642472419608,
            "trialTime": 0
        },
        {
            "exptPart": "trial",
            "trialNumber": 99,
            "roleCurrent": "sender",
            "marblesSampled": 100,
            "probRed": 0.5,
            "lambda": 5,
            "drawnRed": 15,
            "reportedRed": 101,
            "inferredRed": 99,
            "playerTrialScore": 84,
            "oppTrialScore": -84,
            "playerTotalScore": 653,
            "oppTotalScore": -2222,
            "waitTime": 2862.991352066908,
            "responseTime": 1642472531230,
            "catchQuestion": "How many <b class=\"r\">red<\/b> marbles did your opponent report drawing? ",
            "catchKey": -1,
            "catchResponse": -1,
            "catchTime": 1642472419608,
            "trialTime": 0
        },
        {
            "exptPart": "trial",
            "trialNumber": 100,
            "roleCurrent": "receiver",
            "marblesSampled": 100,
            "probRed": 0.5,
            "lambda": 5,
            "drawnRed": 53,
            "reportedRed": 62,
            "inferredRed": 31,
            "playerTrialScore": -22,
            "oppTrialScore": 0,
            "playerTotalScore": 631,
            "oppTotalScore": -2222,
            "waitTime": 6513.386525030879,
            "responseTime": 1642472542934,
            "catchQuestion": "How many <b class=\"r\">red<\/b> marbles did your opponent report drawing? ",
            "catchKey": -1,
            "catchResponse": -1,
            "catchTime": 1642472542934,
            "trialTime": 0
        }
    ]
}