{
    "client": {
        "type": "sona",
        "experiment_id": 2228,
        "credit_token": "b315147ae43241ea9c65086cb510cfb7",
        "survey_code": "29538",
        "sid": "sona-29538",
        "window": {
            "width": 1295,
            "height": 764
        },
        "screen": {
            "width": 1440,
            "height": 900
        },
        "userAgent": "Mozilla\/5.0 (Macintosh; Intel Mac OS X 10_15_7) AppleWebKit\/537.36 (KHTML, like Gecko) Chrome\/97.0.4692.71 Safari\/537.36",
        "score": 0,
        "bonus": 0
    },
    "expt": {
        "saveURL": "submit.simple.php",
        "trials": 100,
        "practiceTrials": 2,
        "marblesSampled": 100,
        "probRed": 0.5,
        "lambdaAI": 5,
        "roleFirst": "receiver",
        "roles": [
            "sender",
            "receiver"
        ],
        "cost": "linear",
        "goal": "over",
        "catchTrials": [
            97,
            71,
            41,
            28,
            49,
            84,
            0,
            57,
            55,
            78
        ],
        "scoreTotal": {
            "player": -94,
            "opp": -135
        },
        "sona": {
            "experiment_id": 2228,
            "credit_token": "b315147ae43241ea9c65086cb510cfb7"
        },
        "pilot": false,
        "debug": false
    },
    "trials": [
        {
            "exptPart": "practice",
            "trialNumber": 1,
            "roleCurrent": "sender",
            "marblesSampled": 100,
            "probRed": 0.5,
            "lambda": 5,
            "drawnRed": 76,
            "reportedRed": 77,
            "inferredRed": 74,
            "playerTrialScore": 0,
            "oppTrialScore": -2,
            "playerTotalScore": 0,
            "oppTotalScore": -2,
            "waitTime": 2972.604988543562,
            "responseTime": 1643002091642,
            "catchQuestion": "How many <b class=\"r\">red<\/b> marbles did you actually draw (before any changes)? ",
            "catchKey": 76,
            "catchResponse": 76,
            "catchTime": 1643002091642,
            "trialTime": 0
        },
        {
            "exptPart": "practice",
            "trialNumber": 2,
            "roleCurrent": "receiver",
            "marblesSampled": 100,
            "probRed": 0.5,
            "lambda": 5,
            "drawnRed": 80,
            "reportedRed": 83,
            "inferredRed": 81,
            "playerTrialScore": -1,
            "oppTrialScore": 1,
            "playerTotalScore": -1,
            "oppTotalScore": -1,
            "waitTime": 7378.218384408925,
            "responseTime": 1643002141790,
            "catchQuestion": "How many <b class=\"r\">red<\/b> marbles did your opponent report drawing? ",
            "catchKey": 83,
            "catchResponse": 76,
            "catchTime": 1643002141791,
            "trialTime": 0
        },
        {
            "exptPart": "trial",
            "trialNumber": 1,
            "roleCurrent": "receiver",
            "marblesSampled": 100,
            "probRed": 0.5,
            "lambda": 5,
            "drawnRed": 67,
            "reportedRed": 72,
            "inferredRed": 64,
            "playerTrialScore": -3,
            "oppTrialScore": 0,
            "playerTotalScore": -3,
            "oppTotalScore": 0,
            "waitTime": 6100.41707086106,
            "responseTime": 1643002187390,
            "catchQuestion": "How many <b class=\"r\">red<\/b> marbles did your opponent report drawing? ",
            "catchKey": 72,
            "catchResponse": 72,
            "catchTime": 1643002187390,
            "trialTime": 0
        },
        {
            "exptPart": "trial",
            "trialNumber": 2,
            "roleCurrent": "sender",
            "marblesSampled": 100,
            "probRed": 0.5,
            "lambda": 5,
            "drawnRed": 55,
            "reportedRed": 62,
            "inferredRed": 54,
            "playerTrialScore": 0,
            "oppTrialScore": -1,
            "playerTotalScore": -3,
            "oppTotalScore": -1,
            "waitTime": 2367.5953462312364,
            "responseTime": 1643002249289,
            "catchQuestion": "How many <b class=\"r\">red<\/b> marbles did your opponent report drawing? ",
            "catchKey": -1,
            "catchResponse": -1,
            "catchTime": 1643002187390,
            "trialTime": 0
        },
        {
            "exptPart": "trial",
            "trialNumber": 3,
            "roleCurrent": "receiver",
            "marblesSampled": 100,
            "probRed": 0.5,
            "lambda": 5,
            "drawnRed": 62,
            "reportedRed": 70,
            "inferredRed": 64,
            "playerTrialScore": -2,
            "oppTrialScore": 2,
            "playerTotalScore": -5,
            "oppTotalScore": 1,
            "waitTime": 6942.466880197266,
            "responseTime": 1643002327672,
            "catchQuestion": "How many <b class=\"r\">red<\/b> marbles did your opponent report drawing? ",
            "catchKey": -1,
            "catchResponse": -1,
            "catchTime": 1643002187390,
            "trialTime": 0
        },
        {
            "exptPart": "trial",
            "trialNumber": 4,
            "roleCurrent": "sender",
            "marblesSampled": 100,
            "probRed": 0.5,
            "lambda": 5,
            "drawnRed": 57,
            "reportedRed": 63,
            "inferredRed": 59,
            "playerTrialScore": 2,
            "oppTrialScore": -2,
            "playerTotalScore": -3,
            "oppTotalScore": -1,
            "waitTime": 2331.166755807951,
            "responseTime": 1643002370771,
            "catchQuestion": "How many <b class=\"r\">red<\/b> marbles did your opponent report drawing? ",
            "catchKey": -1,
            "catchResponse": -1,
            "catchTime": 1643002187390,
            "trialTime": 0
        },
        {
            "exptPart": "trial",
            "trialNumber": 5,
            "roleCurrent": "receiver",
            "marblesSampled": 100,
            "probRed": 0.5,
            "lambda": 5,
            "drawnRed": 15,
            "reportedRed": 18,
            "inferredRed": 12,
            "playerTrialScore": -3,
            "oppTrialScore": 0,
            "playerTotalScore": -6,
            "oppTotalScore": -1,
            "waitTime": 7218.3382031496485,
            "responseTime": 1643002390505,
            "catchQuestion": "How many <b class=\"r\">red<\/b> marbles did your opponent report drawing? ",
            "catchKey": -1,
            "catchResponse": -1,
            "catchTime": 1643002390505,
            "trialTime": 0
        },
        {
            "exptPart": "trial",
            "trialNumber": 6,
            "roleCurrent": "sender",
            "marblesSampled": 100,
            "probRed": 0.5,
            "lambda": 5,
            "drawnRed": 66,
            "reportedRed": 68,
            "inferredRed": 63,
            "playerTrialScore": 0,
            "oppTrialScore": -3,
            "playerTotalScore": -6,
            "oppTotalScore": -4,
            "waitTime": 2357.253156040615,
            "responseTime": 1643002408788,
            "catchQuestion": "How many <b class=\"r\">red<\/b> marbles did your opponent report drawing? ",
            "catchKey": -1,
            "catchResponse": -1,
            "catchTime": 1643002390505,
            "trialTime": 0
        },
        {
            "exptPart": "trial",
            "trialNumber": 7,
            "roleCurrent": "receiver",
            "marblesSampled": 100,
            "probRed": 0.5,
            "lambda": 5,
            "drawnRed": 59,
            "reportedRed": 68,
            "inferredRed": 65,
            "playerTrialScore": -6,
            "oppTrialScore": 6,
            "playerTotalScore": -12,
            "oppTotalScore": 2,
            "waitTime": 6912.580967619535,
            "responseTime": 1643002426587,
            "catchQuestion": "How many <b class=\"r\">red<\/b> marbles did your opponent report drawing? ",
            "catchKey": -1,
            "catchResponse": -1,
            "catchTime": 1643002390505,
            "trialTime": 0
        },
        {
            "exptPart": "trial",
            "trialNumber": 8,
            "roleCurrent": "sender",
            "marblesSampled": 100,
            "probRed": 0.5,
            "lambda": 5,
            "drawnRed": 25,
            "reportedRed": 25,
            "inferredRed": 19,
            "playerTrialScore": 0,
            "oppTrialScore": -6,
            "playerTotalScore": -12,
            "oppTotalScore": -4,
            "waitTime": 2315.721073233749,
            "responseTime": 1643002437654,
            "catchQuestion": "How many <b class=\"r\">red<\/b> marbles did your opponent report drawing? ",
            "catchKey": -1,
            "catchResponse": -1,
            "catchTime": 1643002390505,
            "trialTime": 0
        },
        {
            "exptPart": "trial",
            "trialNumber": 9,
            "roleCurrent": "receiver",
            "marblesSampled": 100,
            "probRed": 0.5,
            "lambda": 5,
            "drawnRed": 65,
            "reportedRed": 72,
            "inferredRed": 70,
            "playerTrialScore": -5,
            "oppTrialScore": 5,
            "playerTotalScore": -17,
            "oppTotalScore": 1,
            "waitTime": 7451.439213855841,
            "responseTime": 1643002456737,
            "catchQuestion": "How many <b class=\"r\">red<\/b> marbles did your opponent report drawing? ",
            "catchKey": -1,
            "catchResponse": -1,
            "catchTime": 1643002390505,
            "trialTime": 0
        },
        {
            "exptPart": "trial",
            "trialNumber": 10,
            "roleCurrent": "sender",
            "marblesSampled": 100,
            "probRed": 0.5,
            "lambda": 5,
            "drawnRed": 24,
            "reportedRed": 30,
            "inferredRed": 26,
            "playerTrialScore": 2,
            "oppTrialScore": -2,
            "playerTotalScore": -15,
            "oppTotalScore": -1,
            "waitTime": 2783.2691599217105,
            "responseTime": 1643002500453,
            "catchQuestion": "How many <b class=\"r\">red<\/b> marbles did your opponent report drawing? ",
            "catchKey": -1,
            "catchResponse": -1,
            "catchTime": 1643002500453,
            "trialTime": 0
        },
        {
            "exptPart": "trial",
            "trialNumber": 11,
            "roleCurrent": "receiver",
            "marblesSampled": 100,
            "probRed": 0.5,
            "lambda": 5,
            "drawnRed": 38,
            "reportedRed": 41,
            "inferredRed": 41,
            "playerTrialScore": -3,
            "oppTrialScore": 3,
            "playerTotalScore": -18,
            "oppTotalScore": 2,
            "waitTime": 6158.04220886077,
            "responseTime": 1643002520103,
            "catchQuestion": "How many <b class=\"r\">red<\/b> marbles did your opponent report drawing? ",
            "catchKey": -1,
            "catchResponse": -1,
            "catchTime": 1643002500453,
            "trialTime": 0
        },
        {
            "exptPart": "trial",
            "trialNumber": 12,
            "roleCurrent": "sender",
            "marblesSampled": 100,
            "probRed": 0.5,
            "lambda": 5,
            "drawnRed": 60,
            "reportedRed": 55,
            "inferredRed": 49,
            "playerTrialScore": 0,
            "oppTrialScore": -11,
            "playerTotalScore": -18,
            "oppTotalScore": -9,
            "waitTime": 2637.769668970823,
            "responseTime": 1643002548452,
            "catchQuestion": "How many <b class=\"r\">red<\/b> marbles did your opponent report drawing? ",
            "catchKey": -1,
            "catchResponse": -1,
            "catchTime": 1643002500453,
            "trialTime": 0
        },
        {
            "exptPart": "trial",
            "trialNumber": 13,
            "roleCurrent": "receiver",
            "marblesSampled": 100,
            "probRed": 0.5,
            "lambda": 5,
            "drawnRed": 68,
            "reportedRed": 72,
            "inferredRed": 65,
            "playerTrialScore": -3,
            "oppTrialScore": 0,
            "playerTotalScore": -21,
            "oppTotalScore": -9,
            "waitTime": 5222.406485025828,
            "responseTime": 1643002560886,
            "catchQuestion": "How many <b class=\"r\">red<\/b> marbles did your opponent report drawing? ",
            "catchKey": -1,
            "catchResponse": -1,
            "catchTime": 1643002500453,
            "trialTime": 0
        },
        {
            "exptPart": "trial",
            "trialNumber": 14,
            "roleCurrent": "sender",
            "marblesSampled": 100,
            "probRed": 0.5,
            "lambda": 5,
            "drawnRed": 18,
            "reportedRed": 14,
            "inferredRed": 8,
            "playerTrialScore": 0,
            "oppTrialScore": -10,
            "playerTotalScore": -21,
            "oppTotalScore": -19,
            "waitTime": 2956.4564521756756,
            "responseTime": 1643002583718,
            "catchQuestion": "How many <b class=\"r\">red<\/b> marbles did your opponent report drawing? ",
            "catchKey": -1,
            "catchResponse": -1,
            "catchTime": 1643002500453,
            "trialTime": 0
        },
        {
            "exptPart": "trial",
            "trialNumber": 15,
            "roleCurrent": "receiver",
            "marblesSampled": 100,
            "probRed": 0.5,
            "lambda": 5,
            "drawnRed": 36,
            "reportedRed": 42,
            "inferredRed": 30,
            "playerTrialScore": -6,
            "oppTrialScore": 0,
            "playerTotalScore": -27,
            "oppTotalScore": -19,
            "waitTime": 5276.267797902628,
            "responseTime": 1643002592969,
            "catchQuestion": "How many <b class=\"r\">red<\/b> marbles did your opponent report drawing? ",
            "catchKey": -1,
            "catchResponse": -1,
            "catchTime": 1643002592969,
            "trialTime": 0
        },
        {
            "exptPart": "trial",
            "trialNumber": 16,
            "roleCurrent": "sender",
            "marblesSampled": 100,
            "probRed": 0.5,
            "lambda": 5,
            "drawnRed": 10,
            "reportedRed": 10,
            "inferredRed": 4,
            "playerTrialScore": 0,
            "oppTrialScore": -6,
            "playerTotalScore": -27,
            "oppTotalScore": -25,
            "waitTime": 2657.123252520209,
            "responseTime": 1643002610585,
            "catchQuestion": "How many <b class=\"r\">red<\/b> marbles did your opponent report drawing? ",
            "catchKey": -1,
            "catchResponse": -1,
            "catchTime": 1643002592969,
            "trialTime": 0
        },
        {
            "exptPart": "trial",
            "trialNumber": 17,
            "roleCurrent": "receiver",
            "marblesSampled": 100,
            "probRed": 0.5,
            "lambda": 5,
            "drawnRed": 56,
            "reportedRed": 62,
            "inferredRed": 58,
            "playerTrialScore": -2,
            "oppTrialScore": 2,
            "playerTotalScore": -29,
            "oppTotalScore": -23,
            "waitTime": 6956.233304687321,
            "responseTime": 1643002624802,
            "catchQuestion": "How many <b class=\"r\">red<\/b> marbles did your opponent report drawing? ",
            "catchKey": -1,
            "catchResponse": -1,
            "catchTime": 1643002592969,
            "trialTime": 0
        },
        {
            "exptPart": "trial",
            "trialNumber": 18,
            "roleCurrent": "sender",
            "marblesSampled": 100,
            "probRed": 0.5,
            "lambda": 5,
            "drawnRed": 49,
            "reportedRed": 55,
            "inferredRed": 50,
            "playerTrialScore": 1,
            "oppTrialScore": -1,
            "playerTotalScore": -28,
            "oppTotalScore": -24,
            "waitTime": 2268.5820423072155,
            "responseTime": 1643002650468,
            "catchQuestion": "How many <b class=\"r\">red<\/b> marbles did your opponent report drawing? ",
            "catchKey": -1,
            "catchResponse": -1,
            "catchTime": 1643002592969,
            "trialTime": 0
        },
        {
            "exptPart": "trial",
            "trialNumber": 19,
            "roleCurrent": "receiver",
            "marblesSampled": 100,
            "probRed": 0.5,
            "lambda": 5,
            "drawnRed": 67,
            "reportedRed": 73,
            "inferredRed": 64,
            "playerTrialScore": -3,
            "oppTrialScore": 0,
            "playerTotalScore": -31,
            "oppTotalScore": -24,
            "waitTime": 6335.315427289672,
            "responseTime": 1643002664185,
            "catchQuestion": "How many <b class=\"r\">red<\/b> marbles did your opponent report drawing? ",
            "catchKey": -1,
            "catchResponse": -1,
            "catchTime": 1643002592969,
            "trialTime": 0
        },
        {
            "exptPart": "trial",
            "trialNumber": 20,
            "roleCurrent": "sender",
            "marblesSampled": 100,
            "probRed": 0.5,
            "lambda": 5,
            "drawnRed": 39,
            "reportedRed": 39,
            "inferredRed": 35,
            "playerTrialScore": 0,
            "oppTrialScore": -4,
            "playerTotalScore": -31,
            "oppTotalScore": -28,
            "waitTime": 2771.6671239104803,
            "responseTime": 1643002678784,
            "catchQuestion": "How many <b class=\"r\">red<\/b> marbles did your opponent report drawing? ",
            "catchKey": -1,
            "catchResponse": -1,
            "catchTime": 1643002678784,
            "trialTime": 0
        },
        {
            "exptPart": "trial",
            "trialNumber": 21,
            "roleCurrent": "receiver",
            "marblesSampled": 100,
            "probRed": 0.5,
            "lambda": 5,
            "drawnRed": 37,
            "reportedRed": 42,
            "inferredRed": 35,
            "playerTrialScore": -2,
            "oppTrialScore": 0,
            "playerTotalScore": -33,
            "oppTotalScore": -28,
            "waitTime": 5935.413654233873,
            "responseTime": 1643002693651,
            "catchQuestion": "How many <b class=\"r\">red<\/b> marbles did your opponent report drawing? ",
            "catchKey": -1,
            "catchResponse": -1,
            "catchTime": 1643002678784,
            "trialTime": 0
        },
        {
            "exptPart": "trial",
            "trialNumber": 22,
            "roleCurrent": "sender",
            "marblesSampled": 100,
            "probRed": 0.5,
            "lambda": 5,
            "drawnRed": 57,
            "reportedRed": 63,
            "inferredRed": 61,
            "playerTrialScore": 4,
            "oppTrialScore": -4,
            "playerTotalScore": -29,
            "oppTotalScore": -32,
            "waitTime": 2950.710356594056,
            "responseTime": 1643002733034,
            "catchQuestion": "How many <b class=\"r\">red<\/b> marbles did your opponent report drawing? ",
            "catchKey": -1,
            "catchResponse": -1,
            "catchTime": 1643002678784,
            "trialTime": 0
        },
        {
            "exptPart": "trial",
            "trialNumber": 23,
            "roleCurrent": "receiver",
            "marblesSampled": 100,
            "probRed": 0.5,
            "lambda": 5,
            "drawnRed": 51,
            "reportedRed": 56,
            "inferredRed": 44,
            "playerTrialScore": -7,
            "oppTrialScore": 0,
            "playerTotalScore": -36,
            "oppTotalScore": -32,
            "waitTime": 5243.090967433594,
            "responseTime": 1643002743517,
            "catchQuestion": "How many <b class=\"r\">red<\/b> marbles did your opponent report drawing? ",
            "catchKey": -1,
            "catchResponse": -1,
            "catchTime": 1643002678784,
            "trialTime": 0
        },
        {
            "exptPart": "trial",
            "trialNumber": 24,
            "roleCurrent": "sender",
            "marblesSampled": 100,
            "probRed": 0.5,
            "lambda": 5,
            "drawnRed": 29,
            "reportedRed": 29,
            "inferredRed": 22,
            "playerTrialScore": 0,
            "oppTrialScore": -7,
            "playerTotalScore": -36,
            "oppTotalScore": -39,
            "waitTime": 3178.8008816485703,
            "responseTime": 1643002769816,
            "catchQuestion": "How many <b class=\"r\">red<\/b> marbles did your opponent report drawing? ",
            "catchKey": -1,
            "catchResponse": -1,
            "catchTime": 1643002678784,
            "trialTime": 0
        },
        {
            "exptPart": "trial",
            "trialNumber": 25,
            "roleCurrent": "receiver",
            "marblesSampled": 100,
            "probRed": 0.5,
            "lambda": 5,
            "drawnRed": 32,
            "reportedRed": 38,
            "inferredRed": 32,
            "playerTrialScore": 0,
            "oppTrialScore": 0,
            "playerTotalScore": -36,
            "oppTotalScore": -39,
            "waitTime": 6250.408353441435,
            "responseTime": 1643002781450,
            "catchQuestion": "How many <b class=\"r\">red<\/b> marbles did your opponent report drawing? ",
            "catchKey": -1,
            "catchResponse": -1,
            "catchTime": 1643002781450,
            "trialTime": 0
        },
        {
            "exptPart": "trial",
            "trialNumber": 26,
            "roleCurrent": "sender",
            "marblesSampled": 100,
            "probRed": 0.5,
            "lambda": 5,
            "drawnRed": 17,
            "reportedRed": 17,
            "inferredRed": 9,
            "playerTrialScore": 0,
            "oppTrialScore": -8,
            "playerTotalScore": -36,
            "oppTotalScore": -47,
            "waitTime": 2938.9877902968274,
            "responseTime": 1643002841499,
            "catchQuestion": "How many <b class=\"r\">red<\/b> marbles did your opponent report drawing? ",
            "catchKey": -1,
            "catchResponse": -1,
            "catchTime": 1643002781450,
            "trialTime": 0
        },
        {
            "exptPart": "trial",
            "trialNumber": 27,
            "roleCurrent": "receiver",
            "marblesSampled": 100,
            "probRed": 0.5,
            "lambda": 5,
            "drawnRed": 8,
            "reportedRed": 11,
            "inferredRed": 7,
            "playerTrialScore": -1,
            "oppTrialScore": 0,
            "playerTotalScore": -37,
            "oppTotalScore": -47,
            "waitTime": 6492.019458780193,
            "responseTime": 1643002855633,
            "catchQuestion": "How many <b class=\"r\">red<\/b> marbles did your opponent report drawing? ",
            "catchKey": -1,
            "catchResponse": -1,
            "catchTime": 1643002781450,
            "trialTime": 0
        },
        {
            "exptPart": "trial",
            "trialNumber": 28,
            "roleCurrent": "sender",
            "marblesSampled": 100,
            "probRed": 0.5,
            "lambda": 5,
            "drawnRed": 38,
            "reportedRed": 33,
            "inferredRed": 29,
            "playerTrialScore": 0,
            "oppTrialScore": -9,
            "playerTotalScore": -37,
            "oppTotalScore": -56,
            "waitTime": 2292.457648264621,
            "responseTime": 1643002879631,
            "catchQuestion": "How many <b class=\"r\">red<\/b> marbles did your opponent report drawing? ",
            "catchKey": -1,
            "catchResponse": -1,
            "catchTime": 1643002781450,
            "trialTime": 0
        },
        {
            "exptPart": "trial",
            "trialNumber": 29,
            "roleCurrent": "receiver",
            "marblesSampled": 100,
            "probRed": 0.5,
            "lambda": 5,
            "drawnRed": 48,
            "reportedRed": 54,
            "inferredRed": 49,
            "playerTrialScore": -1,
            "oppTrialScore": 1,
            "playerTotalScore": -38,
            "oppTotalScore": -55,
            "waitTime": 5487.2488632796785,
            "responseTime": 1643002891332,
            "catchQuestion": "How many <b class=\"r\">red<\/b> marbles did your opponent report drawing? ",
            "catchKey": 54,
            "catchResponse": 54,
            "catchTime": 1643002891332,
            "trialTime": 0
        },
        {
            "exptPart": "trial",
            "trialNumber": 30,
            "roleCurrent": "sender",
            "marblesSampled": 100,
            "probRed": 0.5,
            "lambda": 5,
            "drawnRed": 17,
            "reportedRed": 17,
            "inferredRed": 14,
            "playerTrialScore": 0,
            "oppTrialScore": -3,
            "playerTotalScore": -38,
            "oppTotalScore": -58,
            "waitTime": 2989.6543228992605,
            "responseTime": 1643002960025,
            "catchQuestion": "How many <b class=\"r\">red<\/b> marbles did your opponent report drawing? ",
            "catchKey": -1,
            "catchResponse": -1,
            "catchTime": 1643002960025,
            "trialTime": 0
        },
        {
            "exptPart": "trial",
            "trialNumber": 31,
            "roleCurrent": "receiver",
            "marblesSampled": 100,
            "probRed": 0.5,
            "lambda": 5,
            "drawnRed": 54,
            "reportedRed": 61,
            "inferredRed": 53,
            "playerTrialScore": -1,
            "oppTrialScore": 0,
            "playerTotalScore": -39,
            "oppTotalScore": -58,
            "waitTime": 6891.577032737647,
            "responseTime": 1643002974659,
            "catchQuestion": "How many <b class=\"r\">red<\/b> marbles did your opponent report drawing? ",
            "catchKey": -1,
            "catchResponse": -1,
            "catchTime": 1643002960025,
            "trialTime": 0
        },
        {
            "exptPart": "trial",
            "trialNumber": 32,
            "roleCurrent": "sender",
            "marblesSampled": 100,
            "probRed": 0.5,
            "lambda": 5,
            "drawnRed": 40,
            "reportedRed": 46,
            "inferredRed": 40,
            "playerTrialScore": 0,
            "oppTrialScore": 0,
            "playerTotalScore": -39,
            "oppTotalScore": -58,
            "waitTime": 3114.9345914104097,
            "responseTime": 1643002994857,
            "catchQuestion": "How many <b class=\"r\">red<\/b> marbles did your opponent report drawing? ",
            "catchKey": -1,
            "catchResponse": -1,
            "catchTime": 1643002960025,
            "trialTime": 0
        },
        {
            "exptPart": "trial",
            "trialNumber": 33,
            "roleCurrent": "receiver",
            "marblesSampled": 100,
            "probRed": 0.5,
            "lambda": 5,
            "drawnRed": 23,
            "reportedRed": 34,
            "inferredRed": 29,
            "playerTrialScore": -6,
            "oppTrialScore": 6,
            "playerTotalScore": -45,
            "oppTotalScore": -52,
            "waitTime": 7386.506976007632,
            "responseTime": 1643003010573,
            "catchQuestion": "How many <b class=\"r\">red<\/b> marbles did your opponent report drawing? ",
            "catchKey": -1,
            "catchResponse": -1,
            "catchTime": 1643002960025,
            "trialTime": 0
        },
        {
            "exptPart": "trial",
            "trialNumber": 34,
            "roleCurrent": "sender",
            "marblesSampled": 100,
            "probRed": 0.5,
            "lambda": 5,
            "drawnRed": 10,
            "reportedRed": 10,
            "inferredRed": 7,
            "playerTrialScore": 0,
            "oppTrialScore": -3,
            "playerTotalScore": -45,
            "oppTotalScore": -55,
            "waitTime": 2275.9517207179074,
            "responseTime": 1643003019740,
            "catchQuestion": "How many <b class=\"r\">red<\/b> marbles did your opponent report drawing? ",
            "catchKey": -1,
            "catchResponse": -1,
            "catchTime": 1643002960025,
            "trialTime": 0
        },
        {
            "exptPart": "trial",
            "trialNumber": 35,
            "roleCurrent": "receiver",
            "marblesSampled": 100,
            "probRed": 0.5,
            "lambda": 5,
            "drawnRed": 66,
            "reportedRed": 70,
            "inferredRed": 63,
            "playerTrialScore": -3,
            "oppTrialScore": 0,
            "playerTotalScore": -48,
            "oppTotalScore": -55,
            "waitTime": 6752.474255087431,
            "responseTime": 1643003031790,
            "catchQuestion": "How many <b class=\"r\">red<\/b> marbles did your opponent report drawing? ",
            "catchKey": -1,
            "catchResponse": -1,
            "catchTime": 1643003031790,
            "trialTime": 0
        },
        {
            "exptPart": "trial",
            "trialNumber": 36,
            "roleCurrent": "sender",
            "marblesSampled": 100,
            "probRed": 0.5,
            "lambda": 5,
            "drawnRed": 58,
            "reportedRed": 63,
            "inferredRed": 53,
            "playerTrialScore": 0,
            "oppTrialScore": -5,
            "playerTotalScore": -48,
            "oppTotalScore": -60,
            "waitTime": 2521.5062293132864,
            "responseTime": 1643003055688,
            "catchQuestion": "How many <b class=\"r\">red<\/b> marbles did your opponent report drawing? ",
            "catchKey": -1,
            "catchResponse": -1,
            "catchTime": 1643003031790,
            "trialTime": 0
        },
        {
            "exptPart": "trial",
            "trialNumber": 37,
            "roleCurrent": "receiver",
            "marblesSampled": 100,
            "probRed": 0.5,
            "lambda": 5,
            "drawnRed": 33,
            "reportedRed": 36,
            "inferredRed": 32,
            "playerTrialScore": -1,
            "oppTrialScore": 0,
            "playerTotalScore": -49,
            "oppTotalScore": -60,
            "waitTime": 5792.353276451908,
            "responseTime": 1643003074489,
            "catchQuestion": "How many <b class=\"r\">red<\/b> marbles did your opponent report drawing? ",
            "catchKey": -1,
            "catchResponse": -1,
            "catchTime": 1643003031790,
            "trialTime": 0
        },
        {
            "exptPart": "trial",
            "trialNumber": 38,
            "roleCurrent": "sender",
            "marblesSampled": 100,
            "probRed": 0.5,
            "lambda": 5,
            "drawnRed": 17,
            "reportedRed": 17,
            "inferredRed": 12,
            "playerTrialScore": 0,
            "oppTrialScore": -5,
            "playerTotalScore": -49,
            "oppTotalScore": -65,
            "waitTime": 3117.1054936909527,
            "responseTime": 1643003084338,
            "catchQuestion": "How many <b class=\"r\">red<\/b> marbles did your opponent report drawing? ",
            "catchKey": -1,
            "catchResponse": -1,
            "catchTime": 1643003031790,
            "trialTime": 0
        },
        {
            "exptPart": "trial",
            "trialNumber": 39,
            "roleCurrent": "receiver",
            "marblesSampled": 100,
            "probRed": 0.5,
            "lambda": 5,
            "drawnRed": 47,
            "reportedRed": 55,
            "inferredRed": 49,
            "playerTrialScore": -2,
            "oppTrialScore": 2,
            "playerTotalScore": -51,
            "oppTotalScore": -63,
            "waitTime": 6041.7125811479855,
            "responseTime": 1643003104559,
            "catchQuestion": "How many <b class=\"r\">red<\/b> marbles did your opponent report drawing? ",
            "catchKey": -1,
            "catchResponse": -1,
            "catchTime": 1643003031790,
            "trialTime": 0
        },
        {
            "exptPart": "trial",
            "trialNumber": 40,
            "roleCurrent": "sender",
            "marblesSampled": 100,
            "probRed": 0.5,
            "lambda": 5,
            "drawnRed": 86,
            "reportedRed": 93,
            "inferredRed": 91,
            "playerTrialScore": 5,
            "oppTrialScore": -5,
            "playerTotalScore": -46,
            "oppTotalScore": -68,
            "waitTime": 3077.966877887075,
            "responseTime": 1643003129404,
            "catchQuestion": "How many <b class=\"r\">red<\/b> marbles did your opponent report drawing? ",
            "catchKey": -1,
            "catchResponse": -1,
            "catchTime": 1643003129405,
            "trialTime": 0
        },
        {
            "exptPart": "trial",
            "trialNumber": 41,
            "roleCurrent": "receiver",
            "marblesSampled": 100,
            "probRed": 0.5,
            "lambda": 5,
            "drawnRed": 65,
            "reportedRed": 70,
            "inferredRed": 64,
            "playerTrialScore": -1,
            "oppTrialScore": 0,
            "playerTotalScore": -47,
            "oppTotalScore": -68,
            "waitTime": 5353.462448802493,
            "responseTime": 1643003142288,
            "catchQuestion": "How many <b class=\"r\">red<\/b> marbles did your opponent report drawing? ",
            "catchKey": -1,
            "catchResponse": -1,
            "catchTime": 1643003129405,
            "trialTime": 0
        },
        {
            "exptPart": "trial",
            "trialNumber": 42,
            "roleCurrent": "sender",
            "marblesSampled": 100,
            "probRed": 0.5,
            "lambda": 5,
            "drawnRed": 48,
            "reportedRed": 54,
            "inferredRed": 42,
            "playerTrialScore": 0,
            "oppTrialScore": -6,
            "playerTotalScore": -47,
            "oppTotalScore": -74,
            "waitTime": 2233.610651106268,
            "responseTime": 1643003175387,
            "catchQuestion": "How many <b class=\"r\">red<\/b> marbles did you actually draw (before any changes)? ",
            "catchKey": 48,
            "catchResponse": 47,
            "catchTime": 1643003175387,
            "trialTime": 0
        },
        {
            "exptPart": "trial",
            "trialNumber": 43,
            "roleCurrent": "receiver",
            "marblesSampled": 100,
            "probRed": 0.5,
            "lambda": 5,
            "drawnRed": 70,
            "reportedRed": 75,
            "inferredRed": 64,
            "playerTrialScore": -6,
            "oppTrialScore": 0,
            "playerTotalScore": -53,
            "oppTotalScore": -74,
            "waitTime": 5189.668099165969,
            "responseTime": 1643003204153,
            "catchQuestion": "How many <b class=\"r\">red<\/b> marbles did you actually draw (before any changes)? ",
            "catchKey": -1,
            "catchResponse": -1,
            "catchTime": 1643003175387,
            "trialTime": 0
        },
        {
            "exptPart": "trial",
            "trialNumber": 44,
            "roleCurrent": "sender",
            "marblesSampled": 100,
            "probRed": 0.5,
            "lambda": 5,
            "drawnRed": 80,
            "reportedRed": 85,
            "inferredRed": 78,
            "playerTrialScore": 0,
            "oppTrialScore": -2,
            "playerTotalScore": -53,
            "oppTotalScore": -76,
            "waitTime": 2485.156269908919,
            "responseTime": 1643003228370,
            "catchQuestion": "How many <b class=\"r\">red<\/b> marbles did you actually draw (before any changes)? ",
            "catchKey": -1,
            "catchResponse": -1,
            "catchTime": 1643003175387,
            "trialTime": 0
        },
        {
            "exptPart": "trial",
            "trialNumber": 45,
            "roleCurrent": "receiver",
            "marblesSampled": 100,
            "probRed": 0.5,
            "lambda": 5,
            "drawnRed": 23,
            "reportedRed": 29,
            "inferredRed": 24,
            "playerTrialScore": -1,
            "oppTrialScore": 1,
            "playerTotalScore": -54,
            "oppTotalScore": -75,
            "waitTime": 6969.181850064539,
            "responseTime": 1643003243220,
            "catchQuestion": "How many <b class=\"r\">red<\/b> marbles did you actually draw (before any changes)? ",
            "catchKey": -1,
            "catchResponse": -1,
            "catchTime": 1643003243220,
            "trialTime": 0
        },
        {
            "exptPart": "trial",
            "trialNumber": 46,
            "roleCurrent": "sender",
            "marblesSampled": 100,
            "probRed": 0.5,
            "lambda": 5,
            "drawnRed": 70,
            "reportedRed": 70,
            "inferredRed": 60,
            "playerTrialScore": 0,
            "oppTrialScore": -10,
            "playerTotalScore": -54,
            "oppTotalScore": -85,
            "waitTime": 2075.6166041700626,
            "responseTime": 1643003256086,
            "catchQuestion": "How many <b class=\"r\">red<\/b> marbles did you actually draw (before any changes)? ",
            "catchKey": -1,
            "catchResponse": -1,
            "catchTime": 1643003243220,
            "trialTime": 0
        },
        {
            "exptPart": "trial",
            "trialNumber": 47,
            "roleCurrent": "receiver",
            "marblesSampled": 100,
            "probRed": 0.5,
            "lambda": 5,
            "drawnRed": 80,
            "reportedRed": 82,
            "inferredRed": 76,
            "playerTrialScore": -4,
            "oppTrialScore": 0,
            "playerTotalScore": -58,
            "oppTotalScore": -85,
            "waitTime": 5279.105223822604,
            "responseTime": 1643003283435,
            "catchQuestion": "How many <b class=\"r\">red<\/b> marbles did you actually draw (before any changes)? ",
            "catchKey": -1,
            "catchResponse": -1,
            "catchTime": 1643003243220,
            "trialTime": 0
        },
        {
            "exptPart": "trial",
            "trialNumber": 48,
            "roleCurrent": "sender",
            "marblesSampled": 100,
            "probRed": 0.5,
            "lambda": 5,
            "drawnRed": 72,
            "reportedRed": 76,
            "inferredRed": 68,
            "playerTrialScore": 0,
            "oppTrialScore": -4,
            "playerTotalScore": -58,
            "oppTotalScore": -89,
            "waitTime": 2263.1350014414584,
            "responseTime": 1643003305619,
            "catchQuestion": "How many <b class=\"r\">red<\/b> marbles did you actually draw (before any changes)? ",
            "catchKey": -1,
            "catchResponse": -1,
            "catchTime": 1643003243220,
            "trialTime": 0
        },
        {
            "exptPart": "trial",
            "trialNumber": 49,
            "roleCurrent": "receiver",
            "marblesSampled": 100,
            "probRed": 0.5,
            "lambda": 5,
            "drawnRed": 21,
            "reportedRed": 25,
            "inferredRed": 17,
            "playerTrialScore": -4,
            "oppTrialScore": 0,
            "playerTotalScore": -62,
            "oppTotalScore": -89,
            "waitTime": 5678.55341462465,
            "responseTime": 1643003316485,
            "catchQuestion": "How many <b class=\"r\">red<\/b> marbles did you actually draw (before any changes)? ",
            "catchKey": -1,
            "catchResponse": -1,
            "catchTime": 1643003243220,
            "trialTime": 0
        },
        {
            "exptPart": "trial",
            "trialNumber": 50,
            "roleCurrent": "sender",
            "marblesSampled": 100,
            "probRed": 0.5,
            "lambda": 5,
            "drawnRed": 58,
            "reportedRed": 64,
            "inferredRed": 58,
            "playerTrialScore": 0,
            "oppTrialScore": 0,
            "playerTotalScore": -62,
            "oppTotalScore": -89,
            "waitTime": 2242.9458085774777,
            "responseTime": 1643003338768,
            "catchQuestion": "How many <b class=\"r\">red<\/b> marbles did you actually draw (before any changes)? ",
            "catchKey": 58,
            "catchResponse": 46,
            "catchTime": 1643003338768,
            "trialTime": 0
        },
        {
            "exptPart": "trial",
            "trialNumber": 51,
            "roleCurrent": "receiver",
            "marblesSampled": 100,
            "probRed": 0.5,
            "lambda": 5,
            "drawnRed": 74,
            "reportedRed": 76,
            "inferredRed": 72,
            "playerTrialScore": -2,
            "oppTrialScore": 0,
            "playerTotalScore": -64,
            "oppTotalScore": -89,
            "waitTime": 5474.876972266668,
            "responseTime": 1643003359051,
            "catchQuestion": "How many <b class=\"r\">red<\/b> marbles did you actually draw (before any changes)? ",
            "catchKey": -1,
            "catchResponse": -1,
            "catchTime": 1643003338768,
            "trialTime": 0
        },
        {
            "exptPart": "trial",
            "trialNumber": 52,
            "roleCurrent": "sender",
            "marblesSampled": 100,
            "probRed": 0.5,
            "lambda": 5,
            "drawnRed": 22,
            "reportedRed": 30,
            "inferredRed": 24,
            "playerTrialScore": 2,
            "oppTrialScore": -2,
            "playerTotalScore": -62,
            "oppTotalScore": -91,
            "waitTime": 2364.587579517457,
            "responseTime": 1643003398701,
            "catchQuestion": "How many <b class=\"r\">red<\/b> marbles did you actually draw (before any changes)? ",
            "catchKey": -1,
            "catchResponse": -1,
            "catchTime": 1643003338768,
            "trialTime": 0
        },
        {
            "exptPart": "trial",
            "trialNumber": 53,
            "roleCurrent": "receiver",
            "marblesSampled": 100,
            "probRed": 0.5,
            "lambda": 5,
            "drawnRed": 79,
            "reportedRed": 84,
            "inferredRed": 76,
            "playerTrialScore": -3,
            "oppTrialScore": 0,
            "playerTotalScore": -65,
            "oppTotalScore": -91,
            "waitTime": 6223.08919712577,
            "responseTime": 1643003412634,
            "catchQuestion": "How many <b class=\"r\">red<\/b> marbles did you actually draw (before any changes)? ",
            "catchKey": -1,
            "catchResponse": -1,
            "catchTime": 1643003338768,
            "trialTime": 0
        },
        {
            "exptPart": "trial",
            "trialNumber": 54,
            "roleCurrent": "sender",
            "marblesSampled": 100,
            "probRed": 0.5,
            "lambda": 5,
            "drawnRed": 38,
            "reportedRed": 42,
            "inferredRed": 36,
            "playerTrialScore": 0,
            "oppTrialScore": -2,
            "playerTotalScore": -65,
            "oppTotalScore": -93,
            "waitTime": 2211.8295400639554,
            "responseTime": 1643003433483,
            "catchQuestion": "How many <b class=\"r\">red<\/b> marbles did you actually draw (before any changes)? ",
            "catchKey": -1,
            "catchResponse": -1,
            "catchTime": 1643003338768,
            "trialTime": 0
        },
        {
            "exptPart": "trial",
            "trialNumber": 55,
            "roleCurrent": "receiver",
            "marblesSampled": 100,
            "probRed": 0.5,
            "lambda": 5,
            "drawnRed": 32,
            "reportedRed": 37,
            "inferredRed": 34,
            "playerTrialScore": -2,
            "oppTrialScore": 2,
            "playerTotalScore": -67,
            "oppTotalScore": -91,
            "waitTime": 6325.666270285668,
            "responseTime": 1643003447033,
            "catchQuestion": "How many <b class=\"r\">red<\/b> marbles did you actually draw (before any changes)? ",
            "catchKey": -1,
            "catchResponse": -1,
            "catchTime": 1643003447033,
            "trialTime": 0
        },
        {
            "exptPart": "trial",
            "trialNumber": 56,
            "roleCurrent": "sender",
            "marblesSampled": 100,
            "probRed": 0.5,
            "lambda": 5,
            "drawnRed": 50,
            "reportedRed": 42,
            "inferredRed": 35,
            "playerTrialScore": 0,
            "oppTrialScore": -15,
            "playerTotalScore": -67,
            "oppTotalScore": -106,
            "waitTime": 2168.9164427531277,
            "responseTime": 1643003477300,
            "catchQuestion": "How many <b class=\"r\">red<\/b> marbles did you actually draw (before any changes)? ",
            "catchKey": 50,
            "catchResponse": 50,
            "catchTime": 1643003477300,
            "trialTime": 0
        },
        {
            "exptPart": "trial",
            "trialNumber": 57,
            "roleCurrent": "receiver",
            "marblesSampled": 100,
            "probRed": 0.5,
            "lambda": 5,
            "drawnRed": 42,
            "reportedRed": 46,
            "inferredRed": 42,
            "playerTrialScore": 0,
            "oppTrialScore": 0,
            "playerTotalScore": -67,
            "oppTotalScore": -106,
            "waitTime": 5132.444290738227,
            "responseTime": 1643003494849,
            "catchQuestion": "How many <b class=\"r\">red<\/b> marbles did you actually draw (before any changes)? ",
            "catchKey": -1,
            "catchResponse": -1,
            "catchTime": 1643003477300,
            "trialTime": 0
        },
        {
            "exptPart": "trial",
            "trialNumber": 58,
            "roleCurrent": "sender",
            "marblesSampled": 100,
            "probRed": 0.5,
            "lambda": 5,
            "drawnRed": 49,
            "reportedRed": 52,
            "inferredRed": 45,
            "playerTrialScore": 0,
            "oppTrialScore": -4,
            "playerTotalScore": -67,
            "oppTotalScore": -110,
            "waitTime": 3016.428459114602,
            "responseTime": 1643003510950,
            "catchQuestion": "How many <b class=\"r\">red<\/b> marbles did you actually draw (before any changes)? ",
            "catchKey": 49,
            "catchResponse": 48,
            "catchTime": 1643003510950,
            "trialTime": 0
        },
        {
            "exptPart": "trial",
            "trialNumber": 59,
            "roleCurrent": "receiver",
            "marblesSampled": 100,
            "probRed": 0.5,
            "lambda": 5,
            "drawnRed": 89,
            "reportedRed": 96,
            "inferredRed": 89,
            "playerTrialScore": 0,
            "oppTrialScore": 0,
            "playerTotalScore": -67,
            "oppTotalScore": -110,
            "waitTime": 5546.953797522233,
            "responseTime": 1643003532082,
            "catchQuestion": "How many <b class=\"r\">red<\/b> marbles did you actually draw (before any changes)? ",
            "catchKey": -1,
            "catchResponse": -1,
            "catchTime": 1643003510950,
            "trialTime": 0
        },
        {
            "exptPart": "trial",
            "trialNumber": 60,
            "roleCurrent": "sender",
            "marblesSampled": 100,
            "probRed": 0.5,
            "lambda": 5,
            "drawnRed": 35,
            "reportedRed": 35,
            "inferredRed": 31,
            "playerTrialScore": 0,
            "oppTrialScore": -4,
            "playerTotalScore": -67,
            "oppTotalScore": -114,
            "waitTime": 2270.0789583313936,
            "responseTime": 1643003541899,
            "catchQuestion": "How many <b class=\"r\">red<\/b> marbles did you actually draw (before any changes)? ",
            "catchKey": -1,
            "catchResponse": -1,
            "catchTime": 1643003541899,
            "trialTime": 0
        },
        {
            "exptPart": "trial",
            "trialNumber": 61,
            "roleCurrent": "receiver",
            "marblesSampled": 100,
            "probRed": 0.5,
            "lambda": 5,
            "drawnRed": 81,
            "reportedRed": 85,
            "inferredRed": 72,
            "playerTrialScore": -9,
            "oppTrialScore": 0,
            "playerTotalScore": -76,
            "oppTotalScore": -114,
            "waitTime": 7414.694436313115,
            "responseTime": 1643003559016,
            "catchQuestion": "How many <b class=\"r\">red<\/b> marbles did you actually draw (before any changes)? ",
            "catchKey": -1,
            "catchResponse": -1,
            "catchTime": 1643003541899,
            "trialTime": 0
        },
        {
            "exptPart": "trial",
            "trialNumber": 62,
            "roleCurrent": "sender",
            "marblesSampled": 100,
            "probRed": 0.5,
            "lambda": 5,
            "drawnRed": 75,
            "reportedRed": 75,
            "inferredRed": 72,
            "playerTrialScore": 0,
            "oppTrialScore": -3,
            "playerTotalScore": -76,
            "oppTotalScore": -117,
            "waitTime": 2799.5616951946176,
            "responseTime": 1643003567532,
            "catchQuestion": "How many <b class=\"r\">red<\/b> marbles did you actually draw (before any changes)? ",
            "catchKey": -1,
            "catchResponse": -1,
            "catchTime": 1643003541899,
            "trialTime": 0
        },
        {
            "exptPart": "trial",
            "trialNumber": 63,
            "roleCurrent": "receiver",
            "marblesSampled": 100,
            "probRed": 0.5,
            "lambda": 5,
            "drawnRed": 55,
            "reportedRed": 59,
            "inferredRed": 54,
            "playerTrialScore": -1,
            "oppTrialScore": 0,
            "playerTotalScore": -77,
            "oppTotalScore": -117,
            "waitTime": 6274.30115883193,
            "responseTime": 1643003578932,
            "catchQuestion": "How many <b class=\"r\">red<\/b> marbles did you actually draw (before any changes)? ",
            "catchKey": -1,
            "catchResponse": -1,
            "catchTime": 1643003541899,
            "trialTime": 0
        },
        {
            "exptPart": "trial",
            "trialNumber": 64,
            "roleCurrent": "sender",
            "marblesSampled": 100,
            "probRed": 0.5,
            "lambda": 5,
            "drawnRed": 38,
            "reportedRed": 38,
            "inferredRed": 32,
            "playerTrialScore": 0,
            "oppTrialScore": -6,
            "playerTotalScore": -77,
            "oppTotalScore": -123,
            "waitTime": 3152.3962289661804,
            "responseTime": 1643003587548,
            "catchQuestion": "How many <b class=\"r\">red<\/b> marbles did you actually draw (before any changes)? ",
            "catchKey": -1,
            "catchResponse": -1,
            "catchTime": 1643003541899,
            "trialTime": 0
        },
        {
            "exptPart": "trial",
            "trialNumber": 65,
            "roleCurrent": "receiver",
            "marblesSampled": 100,
            "probRed": 0.5,
            "lambda": 5,
            "drawnRed": 55,
            "reportedRed": 60,
            "inferredRed": 56,
            "playerTrialScore": -1,
            "oppTrialScore": 1,
            "playerTotalScore": -78,
            "oppTotalScore": -122,
            "waitTime": 6089.456254494111,
            "responseTime": 1643003599164,
            "catchQuestion": "How many <b class=\"r\">red<\/b> marbles did you actually draw (before any changes)? ",
            "catchKey": -1,
            "catchResponse": -1,
            "catchTime": 1643003599165,
            "trialTime": 0
        },
        {
            "exptPart": "trial",
            "trialNumber": 66,
            "roleCurrent": "sender",
            "marblesSampled": 100,
            "probRed": 0.5,
            "lambda": 5,
            "drawnRed": 80,
            "reportedRed": 85,
            "inferredRed": 81,
            "playerTrialScore": 1,
            "oppTrialScore": -1,
            "playerTotalScore": -77,
            "oppTotalScore": -123,
            "waitTime": 3141.260705771871,
            "responseTime": 1643003619332,
            "catchQuestion": "How many <b class=\"r\">red<\/b> marbles did you actually draw (before any changes)? ",
            "catchKey": -1,
            "catchResponse": -1,
            "catchTime": 1643003599165,
            "trialTime": 0
        },
        {
            "exptPart": "trial",
            "trialNumber": 67,
            "roleCurrent": "receiver",
            "marblesSampled": 100,
            "probRed": 0.5,
            "lambda": 5,
            "drawnRed": 71,
            "reportedRed": 73,
            "inferredRed": 68,
            "playerTrialScore": -3,
            "oppTrialScore": 0,
            "playerTotalScore": -80,
            "oppTotalScore": -123,
            "waitTime": 7474.289012579139,
            "responseTime": 1643003633698,
            "catchQuestion": "How many <b class=\"r\">red<\/b> marbles did you actually draw (before any changes)? ",
            "catchKey": -1,
            "catchResponse": -1,
            "catchTime": 1643003599165,
            "trialTime": 0
        },
        {
            "exptPart": "trial",
            "trialNumber": 68,
            "roleCurrent": "sender",
            "marblesSampled": 100,
            "probRed": 0.5,
            "lambda": 5,
            "drawnRed": 45,
            "reportedRed": 45,
            "inferredRed": 41,
            "playerTrialScore": 0,
            "oppTrialScore": -4,
            "playerTotalScore": -80,
            "oppTotalScore": -127,
            "waitTime": 2609.684183036705,
            "responseTime": 1643003667063,
            "catchQuestion": "How many <b class=\"r\">red<\/b> marbles did you actually draw (before any changes)? ",
            "catchKey": -1,
            "catchResponse": -1,
            "catchTime": 1643003599165,
            "trialTime": 0
        },
        {
            "exptPart": "trial",
            "trialNumber": 69,
            "roleCurrent": "receiver",
            "marblesSampled": 100,
            "probRed": 0.5,
            "lambda": 5,
            "drawnRed": 78,
            "reportedRed": 81,
            "inferredRed": 78,
            "playerTrialScore": 0,
            "oppTrialScore": 0,
            "playerTotalScore": -80,
            "oppTotalScore": -127,
            "waitTime": 5873.044553302427,
            "responseTime": 1643003678780,
            "catchQuestion": "How many <b class=\"r\">red<\/b> marbles did you actually draw (before any changes)? ",
            "catchKey": -1,
            "catchResponse": -1,
            "catchTime": 1643003599165,
            "trialTime": 0
        },
        {
            "exptPart": "trial",
            "trialNumber": 70,
            "roleCurrent": "sender",
            "marblesSampled": 100,
            "probRed": 0.5,
            "lambda": 5,
            "drawnRed": 19,
            "reportedRed": 25,
            "inferredRed": 20,
            "playerTrialScore": 1,
            "oppTrialScore": -1,
            "playerTotalScore": -79,
            "oppTotalScore": -128,
            "waitTime": 2222.6084799783794,
            "responseTime": 1643003711297,
            "catchQuestion": "How many <b class=\"r\">red<\/b> marbles did you actually draw (before any changes)? ",
            "catchKey": -1,
            "catchResponse": -1,
            "catchTime": 1643003711297,
            "trialTime": 0
        },
        {
            "exptPart": "trial",
            "trialNumber": 71,
            "roleCurrent": "receiver",
            "marblesSampled": 100,
            "probRed": 0.5,
            "lambda": 5,
            "drawnRed": 19,
            "reportedRed": 26,
            "inferredRed": 22,
            "playerTrialScore": -3,
            "oppTrialScore": 3,
            "playerTotalScore": -82,
            "oppTotalScore": -125,
            "waitTime": 5632.965984928405,
            "responseTime": 1643003726663,
            "catchQuestion": "How many <b class=\"r\">red<\/b> marbles did you actually draw (before any changes)? ",
            "catchKey": -1,
            "catchResponse": -1,
            "catchTime": 1643003711297,
            "trialTime": 0
        },
        {
            "exptPart": "trial",
            "trialNumber": 72,
            "roleCurrent": "sender",
            "marblesSampled": 100,
            "probRed": 0.5,
            "lambda": 5,
            "drawnRed": 43,
            "reportedRed": 45,
            "inferredRed": 40,
            "playerTrialScore": 0,
            "oppTrialScore": -3,
            "playerTotalScore": -82,
            "oppTotalScore": -128,
            "waitTime": 2824.620888796064,
            "responseTime": 1643003740863,
            "catchQuestion": "How many <b class=\"r\">red<\/b> marbles did you actually draw (before any changes)? ",
            "catchKey": 43,
            "catchResponse": 47,
            "catchTime": 1643003740863,
            "trialTime": 0
        },
        {
            "exptPart": "trial",
            "trialNumber": 73,
            "roleCurrent": "receiver",
            "marblesSampled": 100,
            "probRed": 0.5,
            "lambda": 5,
            "drawnRed": 28,
            "reportedRed": 34,
            "inferredRed": 28,
            "playerTrialScore": 0,
            "oppTrialScore": 0,
            "playerTotalScore": -82,
            "oppTotalScore": -128,
            "waitTime": 5785.738106195948,
            "responseTime": 1643003762046,
            "catchQuestion": "How many <b class=\"r\">red<\/b> marbles did you actually draw (before any changes)? ",
            "catchKey": -1,
            "catchResponse": -1,
            "catchTime": 1643003740863,
            "trialTime": 0
        },
        {
            "exptPart": "trial",
            "trialNumber": 74,
            "roleCurrent": "sender",
            "marblesSampled": 100,
            "probRed": 0.5,
            "lambda": 5,
            "drawnRed": 5,
            "reportedRed": 0,
            "inferredRed": 0,
            "playerTrialScore": 0,
            "oppTrialScore": -5,
            "playerTotalScore": -82,
            "oppTotalScore": -133,
            "waitTime": 2071.8767191953357,
            "responseTime": 1643003783746,
            "catchQuestion": "How many <b class=\"r\">red<\/b> marbles did you actually draw (before any changes)? ",
            "catchKey": -1,
            "catchResponse": -1,
            "catchTime": 1643003740863,
            "trialTime": 0
        },
        {
            "exptPart": "trial",
            "trialNumber": 75,
            "roleCurrent": "receiver",
            "marblesSampled": 100,
            "probRed": 0.5,
            "lambda": 5,
            "drawnRed": 34,
            "reportedRed": 39,
            "inferredRed": 34,
            "playerTrialScore": 0,
            "oppTrialScore": 0,
            "playerTotalScore": -82,
            "oppTotalScore": -133,
            "waitTime": 5217.116107365159,
            "responseTime": 1643003798078,
            "catchQuestion": "How many <b class=\"r\">red<\/b> marbles did you actually draw (before any changes)? ",
            "catchKey": -1,
            "catchResponse": -1,
            "catchTime": 1643003798078,
            "trialTime": 0
        },
        {
            "exptPart": "trial",
            "trialNumber": 76,
            "roleCurrent": "sender",
            "marblesSampled": 100,
            "probRed": 0.5,
            "lambda": 5,
            "drawnRed": 65,
            "reportedRed": 70,
            "inferredRed": 67,
            "playerTrialScore": 2,
            "oppTrialScore": -2,
            "playerTotalScore": -80,
            "oppTotalScore": -135,
            "waitTime": 2773.3226679614636,
            "responseTime": 1643003822978,
            "catchQuestion": "How many <b class=\"r\">red<\/b> marbles did you actually draw (before any changes)? ",
            "catchKey": -1,
            "catchResponse": -1,
            "catchTime": 1643003798078,
            "trialTime": 0
        },
        {
            "exptPart": "trial",
            "trialNumber": 77,
            "roleCurrent": "receiver",
            "marblesSampled": 100,
            "probRed": 0.5,
            "lambda": 5,
            "drawnRed": 50,
            "reportedRed": 55,
            "inferredRed": 52,
            "playerTrialScore": -2,
            "oppTrialScore": 2,
            "playerTotalScore": -82,
            "oppTotalScore": -133,
            "waitTime": 6166.302241845428,
            "responseTime": 1643003836428,
            "catchQuestion": "How many <b class=\"r\">red<\/b> marbles did you actually draw (before any changes)? ",
            "catchKey": -1,
            "catchResponse": -1,
            "catchTime": 1643003798078,
            "trialTime": 0
        },
        {
            "exptPart": "trial",
            "trialNumber": 78,
            "roleCurrent": "sender",
            "marblesSampled": 100,
            "probRed": 0.5,
            "lambda": 5,
            "drawnRed": 53,
            "reportedRed": 60,
            "inferredRed": 53,
            "playerTrialScore": 0,
            "oppTrialScore": 0,
            "playerTotalScore": -82,
            "oppTotalScore": -133,
            "waitTime": 2625.975880180322,
            "responseTime": 1643003859544,
            "catchQuestion": "How many <b class=\"r\">red<\/b> marbles did you actually draw (before any changes)? ",
            "catchKey": -1,
            "catchResponse": -1,
            "catchTime": 1643003798078,
            "trialTime": 0
        },
        {
            "exptPart": "trial",
            "trialNumber": 79,
            "roleCurrent": "receiver",
            "marblesSampled": 100,
            "probRed": 0.5,
            "lambda": 5,
            "drawnRed": 21,
            "reportedRed": 24,
            "inferredRed": 20,
            "playerTrialScore": -1,
            "oppTrialScore": 0,
            "playerTotalScore": -83,
            "oppTotalScore": -133,
            "waitTime": 5452.046870026871,
            "responseTime": 1643003886427,
            "catchQuestion": "How many <b class=\"r\">red<\/b> marbles did your opponent report drawing? ",
            "catchKey": 24,
            "catchResponse": 23,
            "catchTime": 1643003886428,
            "trialTime": 0
        },
        {
            "exptPart": "trial",
            "trialNumber": 80,
            "roleCurrent": "sender",
            "marblesSampled": 100,
            "probRed": 0.5,
            "lambda": 5,
            "drawnRed": 40,
            "reportedRed": 45,
            "inferredRed": 39,
            "playerTrialScore": 0,
            "oppTrialScore": -1,
            "playerTotalScore": -83,
            "oppTotalScore": -134,
            "waitTime": 3009.4007063072686,
            "responseTime": 1643003925443,
            "catchQuestion": "How many <b class=\"r\">red<\/b> marbles did your opponent report drawing? ",
            "catchKey": -1,
            "catchResponse": -1,
            "catchTime": 1643003925443,
            "trialTime": 0
        },
        {
            "exptPart": "trial",
            "trialNumber": 81,
            "roleCurrent": "receiver",
            "marblesSampled": 100,
            "probRed": 0.5,
            "lambda": 5,
            "drawnRed": 68,
            "reportedRed": 71,
            "inferredRed": 65,
            "playerTrialScore": -3,
            "oppTrialScore": 0,
            "playerTotalScore": -86,
            "oppTotalScore": -134,
            "waitTime": 5855.675474512382,
            "responseTime": 1643003937010,
            "catchQuestion": "How many <b class=\"r\">red<\/b> marbles did your opponent report drawing? ",
            "catchKey": -1,
            "catchResponse": -1,
            "catchTime": 1643003925443,
            "trialTime": 0
        },
        {
            "exptPart": "trial",
            "trialNumber": 82,
            "roleCurrent": "sender",
            "marblesSampled": 100,
            "probRed": 0.5,
            "lambda": 5,
            "drawnRed": 85,
            "reportedRed": 90,
            "inferredRed": 85,
            "playerTrialScore": 0,
            "oppTrialScore": 0,
            "playerTotalScore": -86,
            "oppTotalScore": -134,
            "waitTime": 2080.9464522483345,
            "responseTime": 1643003957927,
            "catchQuestion": "How many <b class=\"r\">red<\/b> marbles did your opponent report drawing? ",
            "catchKey": -1,
            "catchResponse": -1,
            "catchTime": 1643003925443,
            "trialTime": 0
        },
        {
            "exptPart": "trial",
            "trialNumber": 83,
            "roleCurrent": "receiver",
            "marblesSampled": 100,
            "probRed": 0.5,
            "lambda": 5,
            "drawnRed": 70,
            "reportedRed": 74,
            "inferredRed": 69,
            "playerTrialScore": -1,
            "oppTrialScore": 0,
            "playerTotalScore": -87,
            "oppTotalScore": -134,
            "waitTime": 5160.599478278043,
            "responseTime": 1643003972976,
            "catchQuestion": "How many <b class=\"r\">red<\/b> marbles did your opponent report drawing? ",
            "catchKey": -1,
            "catchResponse": -1,
            "catchTime": 1643003925443,
            "trialTime": 0
        },
        {
            "exptPart": "trial",
            "trialNumber": 84,
            "roleCurrent": "sender",
            "marblesSampled": 100,
            "probRed": 0.5,
            "lambda": 5,
            "drawnRed": 34,
            "reportedRed": 35,
            "inferredRed": 31,
            "playerTrialScore": 0,
            "oppTrialScore": -3,
            "playerTotalScore": -87,
            "oppTotalScore": -137,
            "waitTime": 2886.500997133835,
            "responseTime": 1643003984208,
            "catchQuestion": "How many <b class=\"r\">red<\/b> marbles did your opponent report drawing? ",
            "catchKey": -1,
            "catchResponse": -1,
            "catchTime": 1643003925443,
            "trialTime": 0
        },
        {
            "exptPart": "trial",
            "trialNumber": 85,
            "roleCurrent": "receiver",
            "marblesSampled": 100,
            "probRed": 0.5,
            "lambda": 5,
            "drawnRed": 47,
            "reportedRed": 54,
            "inferredRed": 50,
            "playerTrialScore": -3,
            "oppTrialScore": 3,
            "playerTotalScore": -90,
            "oppTotalScore": -134,
            "waitTime": 5935.652166274456,
            "responseTime": 1643003997159,
            "catchQuestion": "How many <b class=\"r\">red<\/b> marbles did your opponent report drawing? ",
            "catchKey": 54,
            "catchResponse": 54,
            "catchTime": 1643003997159,
            "trialTime": 0
        },
        {
            "exptPart": "trial",
            "trialNumber": 86,
            "roleCurrent": "sender",
            "marblesSampled": 100,
            "probRed": 0.5,
            "lambda": 5,
            "drawnRed": 34,
            "reportedRed": 40,
            "inferredRed": 36,
            "playerTrialScore": 2,
            "oppTrialScore": -2,
            "playerTotalScore": -88,
            "oppTotalScore": -136,
            "waitTime": 2300.4070018585808,
            "responseTime": 1643004023009,
            "catchQuestion": "How many <b class=\"r\">red<\/b> marbles did your opponent report drawing? ",
            "catchKey": -1,
            "catchResponse": -1,
            "catchTime": 1643003997159,
            "trialTime": 0
        },
        {
            "exptPart": "trial",
            "trialNumber": 87,
            "roleCurrent": "receiver",
            "marblesSampled": 100,
            "probRed": 0.5,
            "lambda": 5,
            "drawnRed": 56,
            "reportedRed": 62,
            "inferredRed": 57,
            "playerTrialScore": -1,
            "oppTrialScore": 1,
            "playerTotalScore": -89,
            "oppTotalScore": -135,
            "waitTime": 5464.231448596918,
            "responseTime": 1643004037258,
            "catchQuestion": "How many <b class=\"r\">red<\/b> marbles did your opponent report drawing? ",
            "catchKey": -1,
            "catchResponse": -1,
            "catchTime": 1643003997159,
            "trialTime": 0
        },
        {
            "exptPart": "trial",
            "trialNumber": 88,
            "roleCurrent": "sender",
            "marblesSampled": 100,
            "probRed": 0.5,
            "lambda": 5,
            "drawnRed": 47,
            "reportedRed": 51,
            "inferredRed": 45,
            "playerTrialScore": 0,
            "oppTrialScore": -2,
            "playerTotalScore": -89,
            "oppTotalScore": -137,
            "waitTime": 2649.9669069552747,
            "responseTime": 1643004055311,
            "catchQuestion": "How many <b class=\"r\">red<\/b> marbles did your opponent report drawing? ",
            "catchKey": -1,
            "catchResponse": -1,
            "catchTime": 1643003997159,
            "trialTime": 0
        },
        {
            "exptPart": "trial",
            "trialNumber": 89,
            "roleCurrent": "receiver",
            "marblesSampled": 100,
            "probRed": 0.5,
            "lambda": 5,
            "drawnRed": 43,
            "reportedRed": 47,
            "inferredRed": 44,
            "playerTrialScore": -1,
            "oppTrialScore": 1,
            "playerTotalScore": -90,
            "oppTotalScore": -136,
            "waitTime": 6093.290704119048,
            "responseTime": 1643004072392,
            "catchQuestion": "How many <b class=\"r\">red<\/b> marbles did your opponent report drawing? ",
            "catchKey": -1,
            "catchResponse": -1,
            "catchTime": 1643003997159,
            "trialTime": 0
        },
        {
            "exptPart": "trial",
            "trialNumber": 90,
            "roleCurrent": "sender",
            "marblesSampled": 100,
            "probRed": 0.5,
            "lambda": 5,
            "drawnRed": 82,
            "reportedRed": 87,
            "inferredRed": 81,
            "playerTrialScore": 0,
            "oppTrialScore": -1,
            "playerTotalScore": -90,
            "oppTotalScore": -137,
            "waitTime": 2312.5563494076523,
            "responseTime": 1643004091127,
            "catchQuestion": "How many <b class=\"r\">red<\/b> marbles did your opponent report drawing? ",
            "catchKey": -1,
            "catchResponse": -1,
            "catchTime": 1643004091127,
            "trialTime": 0
        },
        {
            "exptPart": "trial",
            "trialNumber": 91,
            "roleCurrent": "receiver",
            "marblesSampled": 100,
            "probRed": 0.5,
            "lambda": 5,
            "drawnRed": 33,
            "reportedRed": 40,
            "inferredRed": 34,
            "playerTrialScore": -1,
            "oppTrialScore": 1,
            "playerTotalScore": -91,
            "oppTotalScore": -136,
            "waitTime": 6631.01290947644,
            "responseTime": 1643004105225,
            "catchQuestion": "How many <b class=\"r\">red<\/b> marbles did your opponent report drawing? ",
            "catchKey": -1,
            "catchResponse": -1,
            "catchTime": 1643004091127,
            "trialTime": 0
        },
        {
            "exptPart": "trial",
            "trialNumber": 92,
            "roleCurrent": "sender",
            "marblesSampled": 100,
            "probRed": 0.5,
            "lambda": 5,
            "drawnRed": 35,
            "reportedRed": 40,
            "inferredRed": 36,
            "playerTrialScore": 1,
            "oppTrialScore": -1,
            "playerTotalScore": -90,
            "oppTotalScore": -137,
            "waitTime": 2114.6954364224143,
            "responseTime": 1643004124074,
            "catchQuestion": "How many <b class=\"r\">red<\/b> marbles did your opponent report drawing? ",
            "catchKey": -1,
            "catchResponse": -1,
            "catchTime": 1643004091127,
            "trialTime": 0
        },
        {
            "exptPart": "trial",
            "trialNumber": 93,
            "roleCurrent": "receiver",
            "marblesSampled": 100,
            "probRed": 0.5,
            "lambda": 5,
            "drawnRed": 81,
            "reportedRed": 87,
            "inferredRed": 82,
            "playerTrialScore": -1,
            "oppTrialScore": 1,
            "playerTotalScore": -91,
            "oppTotalScore": -136,
            "waitTime": 6336.9471073229,
            "responseTime": 1643004136324,
            "catchQuestion": "How many <b class=\"r\">red<\/b> marbles did your opponent report drawing? ",
            "catchKey": -1,
            "catchResponse": -1,
            "catchTime": 1643004091127,
            "trialTime": 0
        },
        {
            "exptPart": "trial",
            "trialNumber": 94,
            "roleCurrent": "sender",
            "marblesSampled": 100,
            "probRed": 0.5,
            "lambda": 5,
            "drawnRed": 67,
            "reportedRed": 70,
            "inferredRed": 66,
            "playerTrialScore": 0,
            "oppTrialScore": -1,
            "playerTotalScore": -91,
            "oppTotalScore": -137,
            "waitTime": 2735.949777912886,
            "responseTime": 1643004148657,
            "catchQuestion": "How many <b class=\"r\">red<\/b> marbles did your opponent report drawing? ",
            "catchKey": -1,
            "catchResponse": -1,
            "catchTime": 1643004091127,
            "trialTime": 0
        },
        {
            "exptPart": "trial",
            "trialNumber": 95,
            "roleCurrent": "receiver",
            "marblesSampled": 100,
            "probRed": 0.5,
            "lambda": 5,
            "drawnRed": 45,
            "reportedRed": 53,
            "inferredRed": 49,
            "playerTrialScore": -4,
            "oppTrialScore": 4,
            "playerTotalScore": -95,
            "oppTotalScore": -133,
            "waitTime": 5559.195593283284,
            "responseTime": 1643004157940,
            "catchQuestion": "How many <b class=\"r\">red<\/b> marbles did your opponent report drawing? ",
            "catchKey": -1,
            "catchResponse": -1,
            "catchTime": 1643004157941,
            "trialTime": 0
        },
        {
            "exptPart": "trial",
            "trialNumber": 96,
            "roleCurrent": "sender",
            "marblesSampled": 100,
            "probRed": 0.5,
            "lambda": 5,
            "drawnRed": 88,
            "reportedRed": 91,
            "inferredRed": 89,
            "playerTrialScore": 1,
            "oppTrialScore": -1,
            "playerTotalScore": -94,
            "oppTotalScore": -134,
            "waitTime": 2208.880191533811,
            "responseTime": 1643004179826,
            "catchQuestion": "How many <b class=\"r\">red<\/b> marbles did your opponent report drawing? ",
            "catchKey": -1,
            "catchResponse": -1,
            "catchTime": 1643004157941,
            "trialTime": 0
        },
        {
            "exptPart": "trial",
            "trialNumber": 97,
            "roleCurrent": "receiver",
            "marblesSampled": 100,
            "probRed": 0.5,
            "lambda": 5,
            "drawnRed": 31,
            "reportedRed": 37,
            "inferredRed": 34,
            "playerTrialScore": -3,
            "oppTrialScore": 3,
            "playerTotalScore": -97,
            "oppTotalScore": -131,
            "waitTime": 5579.597160288463,
            "responseTime": 1643004196056,
            "catchQuestion": "How many <b class=\"r\">red<\/b> marbles did your opponent report drawing? ",
            "catchKey": -1,
            "catchResponse": -1,
            "catchTime": 1643004157941,
            "trialTime": 0
        },
        {
            "exptPart": "trial",
            "trialNumber": 98,
            "roleCurrent": "sender",
            "marblesSampled": 100,
            "probRed": 0.5,
            "lambda": 5,
            "drawnRed": 54,
            "reportedRed": 60,
            "inferredRed": 56,
            "playerTrialScore": 2,
            "oppTrialScore": -2,
            "playerTotalScore": -95,
            "oppTotalScore": -133,
            "waitTime": 2825.6046308209598,
            "responseTime": 1643004214373,
            "catchQuestion": "How many <b class=\"r\">red<\/b> marbles did you actually draw (before any changes)? ",
            "catchKey": 54,
            "catchResponse": 56,
            "catchTime": 1643004214373,
            "trialTime": 0
        },
        {
            "exptPart": "trial",
            "trialNumber": 99,
            "roleCurrent": "receiver",
            "marblesSampled": 100,
            "probRed": 0.5,
            "lambda": 5,
            "drawnRed": 73,
            "reportedRed": 78,
            "inferredRed": 72,
            "playerTrialScore": -1,
            "oppTrialScore": 0,
            "playerTotalScore": -96,
            "oppTotalScore": -133,
            "waitTime": 6143.161876069795,
            "responseTime": 1643004232273,
            "catchQuestion": "How many <b class=\"r\">red<\/b> marbles did you actually draw (before any changes)? ",
            "catchKey": -1,
            "catchResponse": -1,
            "catchTime": 1643004214373,
            "trialTime": 0
        },
        {
            "exptPart": "trial",
            "trialNumber": 100,
            "roleCurrent": "sender",
            "marblesSampled": 100,
            "probRed": 0.5,
            "lambda": 5,
            "drawnRed": 74,
            "reportedRed": 80,
            "inferredRed": 76,
            "playerTrialScore": 2,
            "oppTrialScore": -2,
            "playerTotalScore": -94,
            "oppTotalScore": -135,
            "waitTime": 2118.8358531540857,
            "responseTime": 1643004250638,
            "catchQuestion": "How many <b class=\"r\">red<\/b> marbles did you actually draw (before any changes)? ",
            "catchKey": -1,
            "catchResponse": -1,
            "catchTime": 1643004250638,
            "trialTime": 0
        }
    ]
}