{
    "client": {
        "type": "sona",
        "experiment_id": 2228,
        "credit_token": "b315147ae43241ea9c65086cb510cfb7",
        "survey_code": "30419",
        "sid": "sona-30419",
        "window": {
            "width": 1458,
            "height": 710
        },
        "screen": {
            "width": 1536,
            "height": 864
        },
        "userAgent": "Mozilla\/5.0 (Windows NT 10.0; Win64; x64) AppleWebKit\/537.36 (KHTML, like Gecko) Chrome\/97.0.4692.71 Safari\/537.36 Edg\/97.0.1072.62",
        "score": 0,
        "bonus": 0
    },
    "expt": {
        "saveURL": "submit.simple.php",
        "trials": 100,
        "practiceTrials": 2,
        "marblesSampled": 100,
        "probRed": 0.5,
        "lambdaAI": 5,
        "roleFirst": "receiver",
        "roles": [
            "sender",
            "receiver"
        ],
        "cost": "unif",
        "goal": "over",
        "catchTrials": [
            43,
            36,
            93,
            39,
            64,
            57,
            60,
            80,
            46,
            90
        ],
        "scoreTotal": {
            "player": 36,
            "opp": -493
        },
        "sona": {
            "experiment_id": 2228,
            "credit_token": "b315147ae43241ea9c65086cb510cfb7"
        },
        "pilot": false,
        "debug": false
    },
    "trials": [
        {
            "exptPart": "practice",
            "trialNumber": 1,
            "roleCurrent": "sender",
            "marblesSampled": 100,
            "probRed": 0.5,
            "lambda": 5,
            "goal": "over",
            "cost": "unif",
            "drawnRed": 66,
            "reportedRed": 82,
            "inferredRed": 76,
            "playerTrialScore": 10,
            "oppTrialScore": -10,
            "playerTotalScore": 10,
            "oppTotalScore": -10,
            "waitTime": 3185.7870438550126,
            "responseTime": 1642580551187,
            "catchQuestion": "How many <b class=\"r\">red<\/b> marbles did you actually draw (before any changes)? ",
            "catchKey": 66,
            "catchResponse": 50,
            "catchTime": 1642580551187,
            "trialTime": 0
        },
        {
            "exptPart": "practice",
            "trialNumber": 2,
            "roleCurrent": "receiver",
            "marblesSampled": 100,
            "probRed": 0.5,
            "lambda": 5,
            "goal": "over",
            "cost": "unif",
            "drawnRed": 54,
            "reportedRed": 56,
            "inferredRed": 45,
            "playerTrialScore": -9,
            "oppTrialScore": 0,
            "playerTotalScore": 1,
            "oppTotalScore": -10,
            "waitTime": 6412.838432548118,
            "responseTime": 1642580608785,
            "catchQuestion": "How many <b class=\"r\">red<\/b> marbles did your opponent report drawing? ",
            "catchKey": 56,
            "catchResponse": 57,
            "catchTime": 1642580608785,
            "trialTime": 0
        },
        {
            "exptPart": "trial",
            "trialNumber": 1,
            "roleCurrent": "receiver",
            "marblesSampled": 100,
            "probRed": 0.5,
            "lambda": 5,
            "goal": "over",
            "cost": "unif",
            "drawnRed": 39,
            "reportedRed": 46,
            "inferredRed": 40,
            "playerTrialScore": -1,
            "oppTrialScore": 1,
            "playerTotalScore": -1,
            "oppTotalScore": 1,
            "waitTime": 5734.804422871716,
            "responseTime": 1642580660478,
            "catchQuestion": "How many <b class=\"r\">red<\/b> marbles did your opponent report drawing? ",
            "catchKey": -1,
            "catchResponse": -1,
            "catchTime": 1642580608785,
            "trialTime": 0
        },
        {
            "exptPart": "trial",
            "trialNumber": 2,
            "roleCurrent": "sender",
            "marblesSampled": 100,
            "probRed": 0.5,
            "lambda": 5,
            "goal": "over",
            "cost": "unif",
            "drawnRed": 48,
            "reportedRed": 69,
            "inferredRed": 68,
            "playerTrialScore": 20,
            "oppTrialScore": -20,
            "playerTotalScore": 19,
            "oppTotalScore": -19,
            "waitTime": 2128.898262764292,
            "responseTime": 1642580703293,
            "catchQuestion": "How many <b class=\"r\">red<\/b> marbles did your opponent report drawing? ",
            "catchKey": -1,
            "catchResponse": -1,
            "catchTime": 1642580608785,
            "trialTime": 0
        },
        {
            "exptPart": "trial",
            "trialNumber": 3,
            "roleCurrent": "receiver",
            "marblesSampled": 100,
            "probRed": 0.5,
            "lambda": 5,
            "goal": "over",
            "cost": "unif",
            "drawnRed": 64,
            "reportedRed": 69,
            "inferredRed": 51,
            "playerTrialScore": -13,
            "oppTrialScore": 0,
            "playerTotalScore": 6,
            "oppTotalScore": -19,
            "waitTime": 6670.247304379891,
            "responseTime": 1642580723266,
            "catchQuestion": "How many <b class=\"r\">red<\/b> marbles did your opponent report drawing? ",
            "catchKey": -1,
            "catchResponse": -1,
            "catchTime": 1642580608785,
            "trialTime": 0
        },
        {
            "exptPart": "trial",
            "trialNumber": 4,
            "roleCurrent": "sender",
            "marblesSampled": 100,
            "probRed": 0.5,
            "lambda": 5,
            "goal": "over",
            "cost": "unif",
            "drawnRed": 58,
            "reportedRed": 67,
            "inferredRed": 59,
            "playerTrialScore": 1,
            "oppTrialScore": -1,
            "playerTotalScore": 7,
            "oppTotalScore": -20,
            "waitTime": 2856.5043321699904,
            "responseTime": 1642580748183,
            "catchQuestion": "How many <b class=\"r\">red<\/b> marbles did your opponent report drawing? ",
            "catchKey": -1,
            "catchResponse": -1,
            "catchTime": 1642580608785,
            "trialTime": 0
        },
        {
            "exptPart": "trial",
            "trialNumber": 5,
            "roleCurrent": "receiver",
            "marblesSampled": 100,
            "probRed": 0.5,
            "lambda": 5,
            "goal": "over",
            "cost": "unif",
            "drawnRed": 62,
            "reportedRed": 66,
            "inferredRed": 60,
            "playerTrialScore": -2,
            "oppTrialScore": 0,
            "playerTotalScore": 5,
            "oppTotalScore": -20,
            "waitTime": 5430.331748019726,
            "responseTime": 1642580761617,
            "catchQuestion": "How many <b class=\"r\">red<\/b> marbles did your opponent report drawing? ",
            "catchKey": -1,
            "catchResponse": -1,
            "catchTime": 1642580761617,
            "trialTime": 0
        },
        {
            "exptPart": "trial",
            "trialNumber": 6,
            "roleCurrent": "sender",
            "marblesSampled": 100,
            "probRed": 0.5,
            "lambda": 5,
            "goal": "over",
            "cost": "unif",
            "drawnRed": 67,
            "reportedRed": 77,
            "inferredRed": 72,
            "playerTrialScore": 5,
            "oppTrialScore": -5,
            "playerTotalScore": 10,
            "oppTotalScore": -25,
            "waitTime": 3054.7821339482607,
            "responseTime": 1642580797176,
            "catchQuestion": "How many <b class=\"r\">red<\/b> marbles did your opponent report drawing? ",
            "catchKey": -1,
            "catchResponse": -1,
            "catchTime": 1642580761617,
            "trialTime": 0
        },
        {
            "exptPart": "trial",
            "trialNumber": 7,
            "roleCurrent": "receiver",
            "marblesSampled": 100,
            "probRed": 0.5,
            "lambda": 5,
            "goal": "over",
            "cost": "unif",
            "drawnRed": 77,
            "reportedRed": 82,
            "inferredRed": 61,
            "playerTrialScore": -16,
            "oppTrialScore": 0,
            "playerTotalScore": -6,
            "oppTotalScore": -25,
            "waitTime": 6641.85167292565,
            "responseTime": 1642580814120,
            "catchQuestion": "How many <b class=\"r\">red<\/b> marbles did your opponent report drawing? ",
            "catchKey": -1,
            "catchResponse": -1,
            "catchTime": 1642580761617,
            "trialTime": 0
        },
        {
            "exptPart": "trial",
            "trialNumber": 8,
            "roleCurrent": "sender",
            "marblesSampled": 100,
            "probRed": 0.5,
            "lambda": 5,
            "goal": "over",
            "cost": "unif",
            "drawnRed": 54,
            "reportedRed": 83,
            "inferredRed": 78,
            "playerTrialScore": 24,
            "oppTrialScore": -24,
            "playerTotalScore": 18,
            "oppTotalScore": -49,
            "waitTime": 2105.3020617172706,
            "responseTime": 1642580861669,
            "catchQuestion": "How many <b class=\"r\">red<\/b> marbles did your opponent report drawing? ",
            "catchKey": -1,
            "catchResponse": -1,
            "catchTime": 1642580761617,
            "trialTime": 0
        },
        {
            "exptPart": "trial",
            "trialNumber": 9,
            "roleCurrent": "receiver",
            "marblesSampled": 100,
            "probRed": 0.5,
            "lambda": 5,
            "goal": "over",
            "cost": "unif",
            "drawnRed": 49,
            "reportedRed": 51,
            "inferredRed": 40,
            "playerTrialScore": -9,
            "oppTrialScore": 0,
            "playerTotalScore": 9,
            "oppTotalScore": -49,
            "waitTime": 6096.383328611602,
            "responseTime": 1642580880274,
            "catchQuestion": "How many <b class=\"r\">red<\/b> marbles did your opponent report drawing? ",
            "catchKey": -1,
            "catchResponse": -1,
            "catchTime": 1642580761617,
            "trialTime": 0
        },
        {
            "exptPart": "trial",
            "trialNumber": 10,
            "roleCurrent": "sender",
            "marblesSampled": 100,
            "probRed": 0.5,
            "lambda": 5,
            "goal": "over",
            "cost": "unif",
            "drawnRed": 48,
            "reportedRed": 59,
            "inferredRed": 52,
            "playerTrialScore": 4,
            "oppTrialScore": -4,
            "playerTotalScore": 13,
            "oppTotalScore": -53,
            "waitTime": 2839.944847157747,
            "responseTime": 1642580905634,
            "catchQuestion": "How many <b class=\"r\">red<\/b> marbles did your opponent report drawing? ",
            "catchKey": -1,
            "catchResponse": -1,
            "catchTime": 1642580905634,
            "trialTime": 0
        },
        {
            "exptPart": "trial",
            "trialNumber": 11,
            "roleCurrent": "receiver",
            "marblesSampled": 100,
            "probRed": 0.5,
            "lambda": 5,
            "goal": "over",
            "cost": "unif",
            "drawnRed": 40,
            "reportedRed": 45,
            "inferredRed": 25,
            "playerTrialScore": -15,
            "oppTrialScore": 0,
            "playerTotalScore": -2,
            "oppTotalScore": -53,
            "waitTime": 5519.831640448869,
            "responseTime": 1642580920832,
            "catchQuestion": "How many <b class=\"r\">red<\/b> marbles did your opponent report drawing? ",
            "catchKey": -1,
            "catchResponse": -1,
            "catchTime": 1642580905634,
            "trialTime": 0
        },
        {
            "exptPart": "trial",
            "trialNumber": 12,
            "roleCurrent": "sender",
            "marblesSampled": 100,
            "probRed": 0.5,
            "lambda": 5,
            "goal": "over",
            "cost": "unif",
            "drawnRed": 39,
            "reportedRed": 61,
            "inferredRed": 57,
            "playerTrialScore": 18,
            "oppTrialScore": -18,
            "playerTotalScore": 16,
            "oppTotalScore": -71,
            "waitTime": 2116.424436518517,
            "responseTime": 1642580961482,
            "catchQuestion": "How many <b class=\"r\">red<\/b> marbles did your opponent report drawing? ",
            "catchKey": -1,
            "catchResponse": -1,
            "catchTime": 1642580905634,
            "trialTime": 0
        },
        {
            "exptPart": "trial",
            "trialNumber": 13,
            "roleCurrent": "receiver",
            "marblesSampled": 100,
            "probRed": 0.5,
            "lambda": 5,
            "goal": "over",
            "cost": "unif",
            "drawnRed": 36,
            "reportedRed": 41,
            "inferredRed": 30,
            "playerTrialScore": -6,
            "oppTrialScore": 0,
            "playerTotalScore": 10,
            "oppTotalScore": -71,
            "waitTime": 6733.7807701604725,
            "responseTime": 1642580973743,
            "catchQuestion": "How many <b class=\"r\">red<\/b> marbles did your opponent report drawing? ",
            "catchKey": -1,
            "catchResponse": -1,
            "catchTime": 1642580905634,
            "trialTime": 0
        },
        {
            "exptPart": "trial",
            "trialNumber": 14,
            "roleCurrent": "sender",
            "marblesSampled": 100,
            "probRed": 0.5,
            "lambda": 5,
            "goal": "over",
            "cost": "unif",
            "drawnRed": 64,
            "reportedRed": 85,
            "inferredRed": 79,
            "playerTrialScore": 15,
            "oppTrialScore": -15,
            "playerTotalScore": 25,
            "oppTotalScore": -86,
            "waitTime": 2157.6131001636704,
            "responseTime": 1642581012618,
            "catchQuestion": "How many <b class=\"r\">red<\/b> marbles did your opponent report drawing? ",
            "catchKey": -1,
            "catchResponse": -1,
            "catchTime": 1642580905634,
            "trialTime": 0
        },
        {
            "exptPart": "trial",
            "trialNumber": 15,
            "roleCurrent": "receiver",
            "marblesSampled": 100,
            "probRed": 0.5,
            "lambda": 5,
            "goal": "over",
            "cost": "unif",
            "drawnRed": 67,
            "reportedRed": 71,
            "inferredRed": 56,
            "playerTrialScore": -11,
            "oppTrialScore": 0,
            "playerTotalScore": 14,
            "oppTotalScore": -86,
            "waitTime": 6152.393536542946,
            "responseTime": 1642581027937,
            "catchQuestion": "How many <b class=\"r\">red<\/b> marbles did your opponent report drawing? ",
            "catchKey": -1,
            "catchResponse": -1,
            "catchTime": 1642581027937,
            "trialTime": 0
        },
        {
            "exptPart": "trial",
            "trialNumber": 16,
            "roleCurrent": "sender",
            "marblesSampled": 100,
            "probRed": 0.5,
            "lambda": 5,
            "goal": "over",
            "cost": "unif",
            "drawnRed": 60,
            "reportedRed": 78,
            "inferredRed": 67,
            "playerTrialScore": 7,
            "oppTrialScore": -7,
            "playerTotalScore": 21,
            "oppTotalScore": -93,
            "waitTime": 2102.6970414896523,
            "responseTime": 1642581066711,
            "catchQuestion": "How many <b class=\"r\">red<\/b> marbles did your opponent report drawing? ",
            "catchKey": -1,
            "catchResponse": -1,
            "catchTime": 1642581027937,
            "trialTime": 0
        },
        {
            "exptPart": "trial",
            "trialNumber": 17,
            "roleCurrent": "receiver",
            "marblesSampled": 100,
            "probRed": 0.5,
            "lambda": 5,
            "goal": "over",
            "cost": "unif",
            "drawnRed": 86,
            "reportedRed": 89,
            "inferredRed": 70,
            "playerTrialScore": -16,
            "oppTrialScore": 0,
            "playerTotalScore": 5,
            "oppTotalScore": -93,
            "waitTime": 6115.063086435649,
            "responseTime": 1642581082280,
            "catchQuestion": "How many <b class=\"r\">red<\/b> marbles did your opponent report drawing? ",
            "catchKey": -1,
            "catchResponse": -1,
            "catchTime": 1642581027937,
            "trialTime": 0
        },
        {
            "exptPart": "trial",
            "trialNumber": 18,
            "roleCurrent": "sender",
            "marblesSampled": 100,
            "probRed": 0.5,
            "lambda": 5,
            "goal": "over",
            "cost": "unif",
            "drawnRed": 46,
            "reportedRed": 72,
            "inferredRed": 66,
            "playerTrialScore": 20,
            "oppTrialScore": -20,
            "playerTotalScore": 25,
            "oppTotalScore": -113,
            "waitTime": 2421.4975178796294,
            "responseTime": 1642581122583,
            "catchQuestion": "How many <b class=\"r\">red<\/b> marbles did your opponent report drawing? ",
            "catchKey": -1,
            "catchResponse": -1,
            "catchTime": 1642581027937,
            "trialTime": 0
        },
        {
            "exptPart": "trial",
            "trialNumber": 19,
            "roleCurrent": "receiver",
            "marblesSampled": 100,
            "probRed": 0.5,
            "lambda": 5,
            "goal": "over",
            "cost": "unif",
            "drawnRed": 46,
            "reportedRed": 52,
            "inferredRed": 39,
            "playerTrialScore": -7,
            "oppTrialScore": 0,
            "playerTotalScore": 18,
            "oppTotalScore": -113,
            "waitTime": 6120.004723553027,
            "responseTime": 1642581137902,
            "catchQuestion": "How many <b class=\"r\">red<\/b> marbles did your opponent report drawing? ",
            "catchKey": -1,
            "catchResponse": -1,
            "catchTime": 1642581027937,
            "trialTime": 0
        },
        {
            "exptPart": "trial",
            "trialNumber": 20,
            "roleCurrent": "sender",
            "marblesSampled": 100,
            "probRed": 0.5,
            "lambda": 5,
            "goal": "over",
            "cost": "unif",
            "drawnRed": 43,
            "reportedRed": 66,
            "inferredRed": 58,
            "playerTrialScore": 15,
            "oppTrialScore": -15,
            "playerTotalScore": 33,
            "oppTotalScore": -128,
            "waitTime": 2471.8609397213486,
            "responseTime": 1642581173945,
            "catchQuestion": "How many <b class=\"r\">red<\/b> marbles did your opponent report drawing? ",
            "catchKey": -1,
            "catchResponse": -1,
            "catchTime": 1642581173945,
            "trialTime": 0
        },
        {
            "exptPart": "trial",
            "trialNumber": 21,
            "roleCurrent": "receiver",
            "marblesSampled": 100,
            "probRed": 0.5,
            "lambda": 5,
            "goal": "over",
            "cost": "unif",
            "drawnRed": 65,
            "reportedRed": 66,
            "inferredRed": 45,
            "playerTrialScore": -20,
            "oppTrialScore": 0,
            "playerTotalScore": 13,
            "oppTotalScore": -128,
            "waitTime": 6132.294380221621,
            "responseTime": 1642581198599,
            "catchQuestion": "How many <b class=\"r\">red<\/b> marbles did your opponent report drawing? ",
            "catchKey": -1,
            "catchResponse": -1,
            "catchTime": 1642581173945,
            "trialTime": 0
        },
        {
            "exptPart": "trial",
            "trialNumber": 22,
            "roleCurrent": "sender",
            "marblesSampled": 100,
            "probRed": 0.5,
            "lambda": 5,
            "goal": "over",
            "cost": "unif",
            "drawnRed": 52,
            "reportedRed": 69,
            "inferredRed": 67,
            "playerTrialScore": 15,
            "oppTrialScore": -15,
            "playerTotalScore": 28,
            "oppTotalScore": -143,
            "waitTime": 2786.7461968249427,
            "responseTime": 1642581229375,
            "catchQuestion": "How many <b class=\"r\">red<\/b> marbles did your opponent report drawing? ",
            "catchKey": -1,
            "catchResponse": -1,
            "catchTime": 1642581173945,
            "trialTime": 0
        },
        {
            "exptPart": "trial",
            "trialNumber": 23,
            "roleCurrent": "receiver",
            "marblesSampled": 100,
            "probRed": 0.5,
            "lambda": 5,
            "goal": "over",
            "cost": "unif",
            "drawnRed": 68,
            "reportedRed": 73,
            "inferredRed": 69,
            "playerTrialScore": -1,
            "oppTrialScore": 1,
            "playerTotalScore": 27,
            "oppTotalScore": -142,
            "waitTime": 6828.207782032526,
            "responseTime": 1642581241192,
            "catchQuestion": "How many <b class=\"r\">red<\/b> marbles did your opponent report drawing? ",
            "catchKey": -1,
            "catchResponse": -1,
            "catchTime": 1642581173945,
            "trialTime": 0
        },
        {
            "exptPart": "trial",
            "trialNumber": 24,
            "roleCurrent": "sender",
            "marblesSampled": 100,
            "probRed": 0.5,
            "lambda": 5,
            "goal": "over",
            "cost": "unif",
            "drawnRed": 52,
            "reportedRed": 59,
            "inferredRed": 54,
            "playerTrialScore": 2,
            "oppTrialScore": -2,
            "playerTotalScore": 29,
            "oppTotalScore": -144,
            "waitTime": 3081.230243030336,
            "responseTime": 1642581262393,
            "catchQuestion": "How many <b class=\"r\">red<\/b> marbles did your opponent report drawing? ",
            "catchKey": -1,
            "catchResponse": -1,
            "catchTime": 1642581173945,
            "trialTime": 0
        },
        {
            "exptPart": "trial",
            "trialNumber": 25,
            "roleCurrent": "receiver",
            "marblesSampled": 100,
            "probRed": 0.5,
            "lambda": 5,
            "goal": "over",
            "cost": "unif",
            "drawnRed": 39,
            "reportedRed": 45,
            "inferredRed": 35,
            "playerTrialScore": -4,
            "oppTrialScore": 0,
            "playerTotalScore": 25,
            "oppTotalScore": -144,
            "waitTime": 5436.810286887385,
            "responseTime": 1642581273417,
            "catchQuestion": "How many <b class=\"r\">red<\/b> marbles did your opponent report drawing? ",
            "catchKey": -1,
            "catchResponse": -1,
            "catchTime": 1642581273417,
            "trialTime": 0
        },
        {
            "exptPart": "trial",
            "trialNumber": 26,
            "roleCurrent": "sender",
            "marblesSampled": 100,
            "probRed": 0.5,
            "lambda": 5,
            "goal": "over",
            "cost": "unif",
            "drawnRed": 21,
            "reportedRed": 47,
            "inferredRed": 40,
            "playerTrialScore": 19,
            "oppTrialScore": -19,
            "playerTotalScore": 44,
            "oppTotalScore": -163,
            "waitTime": 2313.360671278181,
            "responseTime": 1642581310197,
            "catchQuestion": "How many <b class=\"r\">red<\/b> marbles did your opponent report drawing? ",
            "catchKey": -1,
            "catchResponse": -1,
            "catchTime": 1642581273417,
            "trialTime": 0
        },
        {
            "exptPart": "trial",
            "trialNumber": 27,
            "roleCurrent": "receiver",
            "marblesSampled": 100,
            "probRed": 0.5,
            "lambda": 5,
            "goal": "over",
            "cost": "unif",
            "drawnRed": 52,
            "reportedRed": 58,
            "inferredRed": 39,
            "playerTrialScore": -13,
            "oppTrialScore": 0,
            "playerTotalScore": 31,
            "oppTotalScore": -163,
            "waitTime": 6553.922825219413,
            "responseTime": 1642581325388,
            "catchQuestion": "How many <b class=\"r\">red<\/b> marbles did your opponent report drawing? ",
            "catchKey": -1,
            "catchResponse": -1,
            "catchTime": 1642581273417,
            "trialTime": 0
        },
        {
            "exptPart": "trial",
            "trialNumber": 28,
            "roleCurrent": "sender",
            "marblesSampled": 100,
            "probRed": 0.5,
            "lambda": 5,
            "goal": "over",
            "cost": "unif",
            "drawnRed": 44,
            "reportedRed": 60,
            "inferredRed": 54,
            "playerTrialScore": 10,
            "oppTrialScore": -10,
            "playerTotalScore": 41,
            "oppTotalScore": -173,
            "waitTime": 3109.883222632792,
            "responseTime": 1642581356937,
            "catchQuestion": "How many <b class=\"r\">red<\/b> marbles did your opponent report drawing? ",
            "catchKey": -1,
            "catchResponse": -1,
            "catchTime": 1642581273417,
            "trialTime": 0
        },
        {
            "exptPart": "trial",
            "trialNumber": 29,
            "roleCurrent": "receiver",
            "marblesSampled": 100,
            "probRed": 0.5,
            "lambda": 5,
            "goal": "over",
            "cost": "unif",
            "drawnRed": 38,
            "reportedRed": 45,
            "inferredRed": 29,
            "playerTrialScore": -9,
            "oppTrialScore": 0,
            "playerTotalScore": 32,
            "oppTotalScore": -173,
            "waitTime": 6158.177053691674,
            "responseTime": 1642581369897,
            "catchQuestion": "How many <b class=\"r\">red<\/b> marbles did your opponent report drawing? ",
            "catchKey": -1,
            "catchResponse": -1,
            "catchTime": 1642581273417,
            "trialTime": 0
        },
        {
            "exptPart": "trial",
            "trialNumber": 30,
            "roleCurrent": "sender",
            "marblesSampled": 100,
            "probRed": 0.5,
            "lambda": 5,
            "goal": "over",
            "cost": "unif",
            "drawnRed": 90,
            "reportedRed": 99,
            "inferredRed": 95,
            "playerTrialScore": 5,
            "oppTrialScore": -5,
            "playerTotalScore": 37,
            "oppTotalScore": -178,
            "waitTime": 2477.000603488321,
            "responseTime": 1642581395130,
            "catchQuestion": "How many <b class=\"r\">red<\/b> marbles did your opponent report drawing? ",
            "catchKey": -1,
            "catchResponse": -1,
            "catchTime": 1642581395131,
            "trialTime": 0
        },
        {
            "exptPart": "trial",
            "trialNumber": 31,
            "roleCurrent": "receiver",
            "marblesSampled": 100,
            "probRed": 0.5,
            "lambda": 5,
            "goal": "over",
            "cost": "unif",
            "drawnRed": 52,
            "reportedRed": 52,
            "inferredRed": 40,
            "playerTrialScore": -12,
            "oppTrialScore": 0,
            "playerTotalScore": 25,
            "oppTotalScore": -178,
            "waitTime": 6634.0809374046075,
            "responseTime": 1642581410105,
            "catchQuestion": "How many <b class=\"r\">red<\/b> marbles did your opponent report drawing? ",
            "catchKey": -1,
            "catchResponse": -1,
            "catchTime": 1642581395131,
            "trialTime": 0
        },
        {
            "exptPart": "trial",
            "trialNumber": 32,
            "roleCurrent": "sender",
            "marblesSampled": 100,
            "probRed": 0.5,
            "lambda": 5,
            "goal": "over",
            "cost": "unif",
            "drawnRed": 65,
            "reportedRed": 78,
            "inferredRed": 71,
            "playerTrialScore": 6,
            "oppTrialScore": -6,
            "playerTotalScore": 31,
            "oppTotalScore": -184,
            "waitTime": 2232.4388037129384,
            "responseTime": 1642581436025,
            "catchQuestion": "How many <b class=\"r\">red<\/b> marbles did your opponent report drawing? ",
            "catchKey": -1,
            "catchResponse": -1,
            "catchTime": 1642581395131,
            "trialTime": 0
        },
        {
            "exptPart": "trial",
            "trialNumber": 33,
            "roleCurrent": "receiver",
            "marblesSampled": 100,
            "probRed": 0.5,
            "lambda": 5,
            "goal": "over",
            "cost": "unif",
            "drawnRed": 54,
            "reportedRed": 62,
            "inferredRed": 50,
            "playerTrialScore": -4,
            "oppTrialScore": 0,
            "playerTotalScore": 27,
            "oppTotalScore": -184,
            "waitTime": 5668.512597342067,
            "responseTime": 1642581449293,
            "catchQuestion": "How many <b class=\"r\">red<\/b> marbles did your opponent report drawing? ",
            "catchKey": -1,
            "catchResponse": -1,
            "catchTime": 1642581395131,
            "trialTime": 0
        },
        {
            "exptPart": "trial",
            "trialNumber": 34,
            "roleCurrent": "sender",
            "marblesSampled": 100,
            "probRed": 0.5,
            "lambda": 5,
            "goal": "over",
            "cost": "unif",
            "drawnRed": 64,
            "reportedRed": 71,
            "inferredRed": 67,
            "playerTrialScore": 3,
            "oppTrialScore": -3,
            "playerTotalScore": 30,
            "oppTotalScore": -187,
            "waitTime": 2254.0657199733387,
            "responseTime": 1642581470497,
            "catchQuestion": "How many <b class=\"r\">red<\/b> marbles did your opponent report drawing? ",
            "catchKey": -1,
            "catchResponse": -1,
            "catchTime": 1642581395131,
            "trialTime": 0
        },
        {
            "exptPart": "trial",
            "trialNumber": 35,
            "roleCurrent": "receiver",
            "marblesSampled": 100,
            "probRed": 0.5,
            "lambda": 5,
            "goal": "over",
            "cost": "unif",
            "drawnRed": 39,
            "reportedRed": 54,
            "inferredRed": 49,
            "playerTrialScore": -10,
            "oppTrialScore": 10,
            "playerTotalScore": 20,
            "oppTotalScore": -177,
            "waitTime": 5906.796341920326,
            "responseTime": 1642581483159,
            "catchQuestion": "How many <b class=\"r\">red<\/b> marbles did your opponent report drawing? ",
            "catchKey": -1,
            "catchResponse": -1,
            "catchTime": 1642581483159,
            "trialTime": 0
        },
        {
            "exptPart": "trial",
            "trialNumber": 36,
            "roleCurrent": "sender",
            "marblesSampled": 100,
            "probRed": 0.5,
            "lambda": 5,
            "goal": "over",
            "cost": "unif",
            "drawnRed": 56,
            "reportedRed": 67,
            "inferredRed": 66,
            "playerTrialScore": 10,
            "oppTrialScore": -10,
            "playerTotalScore": 30,
            "oppTotalScore": -187,
            "waitTime": 2741.4941272161154,
            "responseTime": 1642581507579,
            "catchQuestion": "How many <b class=\"r\">red<\/b> marbles did your opponent report drawing? ",
            "catchKey": -1,
            "catchResponse": -1,
            "catchTime": 1642581483159,
            "trialTime": 0
        },
        {
            "exptPart": "trial",
            "trialNumber": 37,
            "roleCurrent": "receiver",
            "marblesSampled": 100,
            "probRed": 0.5,
            "lambda": 5,
            "goal": "over",
            "cost": "unif",
            "drawnRed": 18,
            "reportedRed": 24,
            "inferredRed": 20,
            "playerTrialScore": -2,
            "oppTrialScore": 2,
            "playerTotalScore": 28,
            "oppTotalScore": -185,
            "waitTime": 5273.91042247607,
            "responseTime": 1642581526863,
            "catchQuestion": "How many <b class=\"r\">red<\/b> marbles did your opponent report drawing? ",
            "catchKey": 24,
            "catchResponse": 24,
            "catchTime": 1642581526864,
            "trialTime": 0
        },
        {
            "exptPart": "trial",
            "trialNumber": 38,
            "roleCurrent": "sender",
            "marblesSampled": 100,
            "probRed": 0.5,
            "lambda": 5,
            "goal": "over",
            "cost": "unif",
            "drawnRed": 68,
            "reportedRed": 81,
            "inferredRed": 79,
            "playerTrialScore": 11,
            "oppTrialScore": -11,
            "playerTotalScore": 39,
            "oppTotalScore": -196,
            "waitTime": 2367.162601573982,
            "responseTime": 1642581562372,
            "catchQuestion": "How many <b class=\"r\">red<\/b> marbles did your opponent report drawing? ",
            "catchKey": -1,
            "catchResponse": -1,
            "catchTime": 1642581526864,
            "trialTime": 0
        },
        {
            "exptPart": "trial",
            "trialNumber": 39,
            "roleCurrent": "receiver",
            "marblesSampled": 100,
            "probRed": 0.5,
            "lambda": 5,
            "goal": "over",
            "cost": "unif",
            "drawnRed": 74,
            "reportedRed": 80,
            "inferredRed": 61,
            "playerTrialScore": -13,
            "oppTrialScore": 0,
            "playerTotalScore": 26,
            "oppTotalScore": -196,
            "waitTime": 6689.907698744866,
            "responseTime": 1642581576384,
            "catchQuestion": "How many <b class=\"r\">red<\/b> marbles did your opponent report drawing? ",
            "catchKey": -1,
            "catchResponse": -1,
            "catchTime": 1642581526864,
            "trialTime": 0
        },
        {
            "exptPart": "trial",
            "trialNumber": 40,
            "roleCurrent": "sender",
            "marblesSampled": 100,
            "probRed": 0.5,
            "lambda": 5,
            "goal": "over",
            "cost": "unif",
            "drawnRed": 32,
            "reportedRed": 51,
            "inferredRed": 49,
            "playerTrialScore": 17,
            "oppTrialScore": -17,
            "playerTotalScore": 43,
            "oppTotalScore": -213,
            "waitTime": 3034.35664963244,
            "responseTime": 1642581625017,
            "catchQuestion": "How many <b class=\"r\">red<\/b> marbles did you actually draw (before any changes)? ",
            "catchKey": 32,
            "catchResponse": 40,
            "catchTime": 1642581625017,
            "trialTime": 0
        },
        {
            "exptPart": "trial",
            "trialNumber": 41,
            "roleCurrent": "receiver",
            "marblesSampled": 100,
            "probRed": 0.5,
            "lambda": 5,
            "goal": "over",
            "cost": "unif",
            "drawnRed": 82,
            "reportedRed": 87,
            "inferredRed": 60,
            "playerTrialScore": -22,
            "oppTrialScore": 0,
            "playerTotalScore": 21,
            "oppTotalScore": -213,
            "waitTime": 7484.834293835535,
            "responseTime": 1642581648933,
            "catchQuestion": "How many <b class=\"r\">red<\/b> marbles did you actually draw (before any changes)? ",
            "catchKey": -1,
            "catchResponse": -1,
            "catchTime": 1642581625017,
            "trialTime": 0
        },
        {
            "exptPart": "trial",
            "trialNumber": 42,
            "roleCurrent": "sender",
            "marblesSampled": 100,
            "probRed": 0.5,
            "lambda": 5,
            "goal": "over",
            "cost": "unif",
            "drawnRed": 22,
            "reportedRed": 42,
            "inferredRed": 37,
            "playerTrialScore": 15,
            "oppTrialScore": -15,
            "playerTotalScore": 36,
            "oppTotalScore": -228,
            "waitTime": 2572.747995467333,
            "responseTime": 1642581677417,
            "catchQuestion": "How many <b class=\"r\">red<\/b> marbles did you actually draw (before any changes)? ",
            "catchKey": -1,
            "catchResponse": -1,
            "catchTime": 1642581625017,
            "trialTime": 0
        },
        {
            "exptPart": "trial",
            "trialNumber": 43,
            "roleCurrent": "receiver",
            "marblesSampled": 100,
            "probRed": 0.5,
            "lambda": 5,
            "goal": "over",
            "cost": "unif",
            "drawnRed": 51,
            "reportedRed": 52,
            "inferredRed": 45,
            "playerTrialScore": -6,
            "oppTrialScore": 0,
            "playerTotalScore": 30,
            "oppTotalScore": -228,
            "waitTime": 5639.325557197868,
            "responseTime": 1642581699932,
            "catchQuestion": "How many <b class=\"r\">red<\/b> marbles did you actually draw (before any changes)? ",
            "catchKey": -1,
            "catchResponse": -1,
            "catchTime": 1642581625017,
            "trialTime": 0
        },
        {
            "exptPart": "trial",
            "trialNumber": 44,
            "roleCurrent": "sender",
            "marblesSampled": 100,
            "probRed": 0.5,
            "lambda": 5,
            "goal": "over",
            "cost": "unif",
            "drawnRed": 44,
            "reportedRed": 55,
            "inferredRed": 53,
            "playerTrialScore": 9,
            "oppTrialScore": -9,
            "playerTotalScore": 39,
            "oppTotalScore": -237,
            "waitTime": 2750.0468059741534,
            "responseTime": 1642581719683,
            "catchQuestion": "How many <b class=\"r\">red<\/b> marbles did you actually draw (before any changes)? ",
            "catchKey": 44,
            "catchResponse": 45,
            "catchTime": 1642581719684,
            "trialTime": 0
        },
        {
            "exptPart": "trial",
            "trialNumber": 45,
            "roleCurrent": "receiver",
            "marblesSampled": 100,
            "probRed": 0.5,
            "lambda": 5,
            "goal": "over",
            "cost": "unif",
            "drawnRed": 37,
            "reportedRed": 44,
            "inferredRed": 25,
            "playerTrialScore": -12,
            "oppTrialScore": 0,
            "playerTotalScore": 27,
            "oppTotalScore": -237,
            "waitTime": 5417.146046806822,
            "responseTime": 1642581740343,
            "catchQuestion": "How many <b class=\"r\">red<\/b> marbles did you actually draw (before any changes)? ",
            "catchKey": -1,
            "catchResponse": -1,
            "catchTime": 1642581740343,
            "trialTime": 0
        },
        {
            "exptPart": "trial",
            "trialNumber": 46,
            "roleCurrent": "sender",
            "marblesSampled": 100,
            "probRed": 0.5,
            "lambda": 5,
            "goal": "over",
            "cost": "unif",
            "drawnRed": 79,
            "reportedRed": 88,
            "inferredRed": 82,
            "playerTrialScore": 3,
            "oppTrialScore": -3,
            "playerTotalScore": 30,
            "oppTotalScore": -240,
            "waitTime": 2073.278567792582,
            "responseTime": 1642581762724,
            "catchQuestion": "How many <b class=\"r\">red<\/b> marbles did you actually draw (before any changes)? ",
            "catchKey": -1,
            "catchResponse": -1,
            "catchTime": 1642581740343,
            "trialTime": 0
        },
        {
            "exptPart": "trial",
            "trialNumber": 47,
            "roleCurrent": "receiver",
            "marblesSampled": 100,
            "probRed": 0.5,
            "lambda": 5,
            "goal": "over",
            "cost": "unif",
            "drawnRed": 89,
            "reportedRed": 94,
            "inferredRed": 70,
            "playerTrialScore": -19,
            "oppTrialScore": 0,
            "playerTotalScore": 11,
            "oppTotalScore": -240,
            "waitTime": 5211.610386131451,
            "responseTime": 1642581773003,
            "catchQuestion": "How many <b class=\"r\">red<\/b> marbles did your opponent report drawing? ",
            "catchKey": 94,
            "catchResponse": 89,
            "catchTime": 1642581773003,
            "trialTime": 0
        },
        {
            "exptPart": "trial",
            "trialNumber": 48,
            "roleCurrent": "sender",
            "marblesSampled": 100,
            "probRed": 0.5,
            "lambda": 5,
            "goal": "over",
            "cost": "unif",
            "drawnRed": 35,
            "reportedRed": 43,
            "inferredRed": 39,
            "playerTrialScore": 4,
            "oppTrialScore": -4,
            "playerTotalScore": 15,
            "oppTotalScore": -244,
            "waitTime": 2983.26436192288,
            "responseTime": 1642581806469,
            "catchQuestion": "How many <b class=\"r\">red<\/b> marbles did your opponent report drawing? ",
            "catchKey": -1,
            "catchResponse": -1,
            "catchTime": 1642581773003,
            "trialTime": 0
        },
        {
            "exptPart": "trial",
            "trialNumber": 49,
            "roleCurrent": "receiver",
            "marblesSampled": 100,
            "probRed": 0.5,
            "lambda": 5,
            "goal": "over",
            "cost": "unif",
            "drawnRed": 68,
            "reportedRed": 73,
            "inferredRed": 56,
            "playerTrialScore": -12,
            "oppTrialScore": 0,
            "playerTotalScore": 3,
            "oppTotalScore": -244,
            "waitTime": 5318.172848852575,
            "responseTime": 1642581817732,
            "catchQuestion": "How many <b class=\"r\">red<\/b> marbles did your opponent report drawing? ",
            "catchKey": -1,
            "catchResponse": -1,
            "catchTime": 1642581773003,
            "trialTime": 0
        },
        {
            "exptPart": "trial",
            "trialNumber": 50,
            "roleCurrent": "sender",
            "marblesSampled": 100,
            "probRed": 0.5,
            "lambda": 5,
            "goal": "over",
            "cost": "unif",
            "drawnRed": 44,
            "reportedRed": 57,
            "inferredRed": 49,
            "playerTrialScore": 5,
            "oppTrialScore": -5,
            "playerTotalScore": 8,
            "oppTotalScore": -249,
            "waitTime": 2524.414758712944,
            "responseTime": 1642581839689,
            "catchQuestion": "How many <b class=\"r\">red<\/b> marbles did your opponent report drawing? ",
            "catchKey": -1,
            "catchResponse": -1,
            "catchTime": 1642581839689,
            "trialTime": 0
        },
        {
            "exptPart": "trial",
            "trialNumber": 51,
            "roleCurrent": "receiver",
            "marblesSampled": 100,
            "probRed": 0.5,
            "lambda": 5,
            "goal": "over",
            "cost": "unif",
            "drawnRed": 53,
            "reportedRed": 55,
            "inferredRed": 35,
            "playerTrialScore": -18,
            "oppTrialScore": 0,
            "playerTotalScore": -10,
            "oppTotalScore": -249,
            "waitTime": 5188.555050166893,
            "responseTime": 1642581852478,
            "catchQuestion": "How many <b class=\"r\">red<\/b> marbles did your opponent report drawing? ",
            "catchKey": -1,
            "catchResponse": -1,
            "catchTime": 1642581839689,
            "trialTime": 0
        },
        {
            "exptPart": "trial",
            "trialNumber": 52,
            "roleCurrent": "sender",
            "marblesSampled": 100,
            "probRed": 0.5,
            "lambda": 5,
            "goal": "over",
            "cost": "unif",
            "drawnRed": 70,
            "reportedRed": 78,
            "inferredRed": 75,
            "playerTrialScore": 5,
            "oppTrialScore": -5,
            "playerTotalScore": -5,
            "oppTotalScore": -254,
            "waitTime": 2392.730674643867,
            "responseTime": 1642581872941,
            "catchQuestion": "How many <b class=\"r\">red<\/b> marbles did your opponent report drawing? ",
            "catchKey": -1,
            "catchResponse": -1,
            "catchTime": 1642581839689,
            "trialTime": 0
        },
        {
            "exptPart": "trial",
            "trialNumber": 53,
            "roleCurrent": "receiver",
            "marblesSampled": 100,
            "probRed": 0.5,
            "lambda": 5,
            "goal": "over",
            "cost": "unif",
            "drawnRed": 47,
            "reportedRed": 48,
            "inferredRed": 39,
            "playerTrialScore": -8,
            "oppTrialScore": 0,
            "playerTotalScore": -13,
            "oppTotalScore": -254,
            "waitTime": 5707.744949324522,
            "responseTime": 1642581886314,
            "catchQuestion": "How many <b class=\"r\">red<\/b> marbles did your opponent report drawing? ",
            "catchKey": -1,
            "catchResponse": -1,
            "catchTime": 1642581839689,
            "trialTime": 0
        },
        {
            "exptPart": "trial",
            "trialNumber": 54,
            "roleCurrent": "sender",
            "marblesSampled": 100,
            "probRed": 0.5,
            "lambda": 5,
            "goal": "over",
            "cost": "unif",
            "drawnRed": 66,
            "reportedRed": 78,
            "inferredRed": 75,
            "playerTrialScore": 9,
            "oppTrialScore": -9,
            "playerTotalScore": -4,
            "oppTotalScore": -263,
            "waitTime": 2165.560935924038,
            "responseTime": 1642581925390,
            "catchQuestion": "How many <b class=\"r\">red<\/b> marbles did your opponent report drawing? ",
            "catchKey": -1,
            "catchResponse": -1,
            "catchTime": 1642581839689,
            "trialTime": 0
        },
        {
            "exptPart": "trial",
            "trialNumber": 55,
            "roleCurrent": "receiver",
            "marblesSampled": 100,
            "probRed": 0.5,
            "lambda": 5,
            "goal": "over",
            "cost": "unif",
            "drawnRed": 38,
            "reportedRed": 43,
            "inferredRed": 30,
            "playerTrialScore": -8,
            "oppTrialScore": 0,
            "playerTotalScore": -12,
            "oppTotalScore": -263,
            "waitTime": 5384.68426518611,
            "responseTime": 1642581936684,
            "catchQuestion": "How many <b class=\"r\">red<\/b> marbles did your opponent report drawing? ",
            "catchKey": -1,
            "catchResponse": -1,
            "catchTime": 1642581936685,
            "trialTime": 0
        },
        {
            "exptPart": "trial",
            "trialNumber": 56,
            "roleCurrent": "sender",
            "marblesSampled": 100,
            "probRed": 0.5,
            "lambda": 5,
            "goal": "over",
            "cost": "unif",
            "drawnRed": 47,
            "reportedRed": 61,
            "inferredRed": 52,
            "playerTrialScore": 5,
            "oppTrialScore": -5,
            "playerTotalScore": -7,
            "oppTotalScore": -268,
            "waitTime": 3049.099981710624,
            "responseTime": 1642581967843,
            "catchQuestion": "How many <b class=\"r\">red<\/b> marbles did your opponent report drawing? ",
            "catchKey": -1,
            "catchResponse": -1,
            "catchTime": 1642581936685,
            "trialTime": 0
        },
        {
            "exptPart": "trial",
            "trialNumber": 57,
            "roleCurrent": "receiver",
            "marblesSampled": 100,
            "probRed": 0.5,
            "lambda": 5,
            "goal": "over",
            "cost": "unif",
            "drawnRed": 61,
            "reportedRed": 66,
            "inferredRed": 60,
            "playerTrialScore": -1,
            "oppTrialScore": 0,
            "playerTotalScore": -8,
            "oppTotalScore": -268,
            "waitTime": 5503.644722530629,
            "responseTime": 1642581981164,
            "catchQuestion": "How many <b class=\"r\">red<\/b> marbles did your opponent report drawing? ",
            "catchKey": -1,
            "catchResponse": -1,
            "catchTime": 1642581936685,
            "trialTime": 0
        },
        {
            "exptPart": "trial",
            "trialNumber": 58,
            "roleCurrent": "sender",
            "marblesSampled": 100,
            "probRed": 0.5,
            "lambda": 5,
            "goal": "over",
            "cost": "unif",
            "drawnRed": 33,
            "reportedRed": 59,
            "inferredRed": 58,
            "playerTrialScore": 25,
            "oppTrialScore": -25,
            "playerTotalScore": 17,
            "oppTotalScore": -293,
            "waitTime": 2114.46001006453,
            "responseTime": 1642582016412,
            "catchQuestion": "How many <b class=\"r\">red<\/b> marbles did you actually draw (before any changes)? ",
            "catchKey": 33,
            "catchResponse": 56,
            "catchTime": 1642582016412,
            "trialTime": 0
        },
        {
            "exptPart": "trial",
            "trialNumber": 59,
            "roleCurrent": "receiver",
            "marblesSampled": 100,
            "probRed": 0.5,
            "lambda": 5,
            "goal": "over",
            "cost": "unif",
            "drawnRed": 84,
            "reportedRed": 87,
            "inferredRed": 65,
            "playerTrialScore": -19,
            "oppTrialScore": 0,
            "playerTotalScore": -2,
            "oppTotalScore": -293,
            "waitTime": 6655.6499859939395,
            "responseTime": 1642582039223,
            "catchQuestion": "How many <b class=\"r\">red<\/b> marbles did you actually draw (before any changes)? ",
            "catchKey": -1,
            "catchResponse": -1,
            "catchTime": 1642582016412,
            "trialTime": 0
        },
        {
            "exptPart": "trial",
            "trialNumber": 60,
            "roleCurrent": "sender",
            "marblesSampled": 100,
            "probRed": 0.5,
            "lambda": 5,
            "goal": "over",
            "cost": "unif",
            "drawnRed": 29,
            "reportedRed": 44,
            "inferredRed": 38,
            "playerTrialScore": 9,
            "oppTrialScore": -9,
            "playerTotalScore": 7,
            "oppTotalScore": -302,
            "waitTime": 2121.276707138785,
            "responseTime": 1642582063309,
            "catchQuestion": "How many <b class=\"r\">red<\/b> marbles did you actually draw (before any changes)? ",
            "catchKey": -1,
            "catchResponse": -1,
            "catchTime": 1642582063309,
            "trialTime": 0
        },
        {
            "exptPart": "trial",
            "trialNumber": 61,
            "roleCurrent": "receiver",
            "marblesSampled": 100,
            "probRed": 0.5,
            "lambda": 5,
            "goal": "over",
            "cost": "unif",
            "drawnRed": 23,
            "reportedRed": 33,
            "inferredRed": 25,
            "playerTrialScore": -2,
            "oppTrialScore": 2,
            "playerTotalScore": 5,
            "oppTotalScore": -300,
            "waitTime": 5604.2000451883505,
            "responseTime": 1642582080729,
            "catchQuestion": "How many <b class=\"r\">red<\/b> marbles did your opponent report drawing? ",
            "catchKey": 33,
            "catchResponse": 33,
            "catchTime": 1642582080730,
            "trialTime": 0
        },
        {
            "exptPart": "trial",
            "trialNumber": 62,
            "roleCurrent": "sender",
            "marblesSampled": 100,
            "probRed": 0.5,
            "lambda": 5,
            "goal": "over",
            "cost": "unif",
            "drawnRed": 52,
            "reportedRed": 72,
            "inferredRed": 69,
            "playerTrialScore": 17,
            "oppTrialScore": -17,
            "playerTotalScore": 22,
            "oppTotalScore": -317,
            "waitTime": 2479.3684938413376,
            "responseTime": 1642582122081,
            "catchQuestion": "How many <b class=\"r\">red<\/b> marbles did your opponent report drawing? ",
            "catchKey": -1,
            "catchResponse": -1,
            "catchTime": 1642582080730,
            "trialTime": 0
        },
        {
            "exptPart": "trial",
            "trialNumber": 63,
            "roleCurrent": "receiver",
            "marblesSampled": 100,
            "probRed": 0.5,
            "lambda": 5,
            "goal": "over",
            "cost": "unif",
            "drawnRed": 64,
            "reportedRed": 73,
            "inferredRed": 56,
            "playerTrialScore": -8,
            "oppTrialScore": 0,
            "playerTotalScore": 14,
            "oppTotalScore": -317,
            "waitTime": 7439.31896307075,
            "responseTime": 1642582135750,
            "catchQuestion": "How many <b class=\"r\">red<\/b> marbles did your opponent report drawing? ",
            "catchKey": -1,
            "catchResponse": -1,
            "catchTime": 1642582080730,
            "trialTime": 0
        },
        {
            "exptPart": "trial",
            "trialNumber": 64,
            "roleCurrent": "sender",
            "marblesSampled": 100,
            "probRed": 0.5,
            "lambda": 5,
            "goal": "over",
            "cost": "unif",
            "drawnRed": 49,
            "reportedRed": 67,
            "inferredRed": 61,
            "playerTrialScore": 12,
            "oppTrialScore": -12,
            "playerTotalScore": 26,
            "oppTotalScore": -329,
            "waitTime": 2196.54101928714,
            "responseTime": 1642582161637,
            "catchQuestion": "How many <b class=\"r\">red<\/b> marbles did your opponent report drawing? ",
            "catchKey": -1,
            "catchResponse": -1,
            "catchTime": 1642582080730,
            "trialTime": 0
        },
        {
            "exptPart": "trial",
            "trialNumber": 65,
            "roleCurrent": "receiver",
            "marblesSampled": 100,
            "probRed": 0.5,
            "lambda": 5,
            "goal": "over",
            "cost": "unif",
            "drawnRed": 22,
            "reportedRed": 24,
            "inferredRed": 16,
            "playerTrialScore": -6,
            "oppTrialScore": 0,
            "playerTotalScore": 20,
            "oppTotalScore": -329,
            "waitTime": 5205.542578363777,
            "responseTime": 1642582172355,
            "catchQuestion": "How many <b class=\"r\">red<\/b> marbles did your opponent report drawing? ",
            "catchKey": 24,
            "catchResponse": 26,
            "catchTime": 1642582172355,
            "trialTime": 0
        },
        {
            "exptPart": "trial",
            "trialNumber": 66,
            "roleCurrent": "sender",
            "marblesSampled": 100,
            "probRed": 0.5,
            "lambda": 5,
            "goal": "over",
            "cost": "unif",
            "drawnRed": 35,
            "reportedRed": 52,
            "inferredRed": 47,
            "playerTrialScore": 12,
            "oppTrialScore": -12,
            "playerTotalScore": 32,
            "oppTotalScore": -341,
            "waitTime": 2217.477650214626,
            "responseTime": 1642582212659,
            "catchQuestion": "How many <b class=\"r\">red<\/b> marbles did your opponent report drawing? ",
            "catchKey": -1,
            "catchResponse": -1,
            "catchTime": 1642582172355,
            "trialTime": 0
        },
        {
            "exptPart": "trial",
            "trialNumber": 67,
            "roleCurrent": "receiver",
            "marblesSampled": 100,
            "probRed": 0.5,
            "lambda": 5,
            "goal": "over",
            "cost": "unif",
            "drawnRed": 32,
            "reportedRed": 35,
            "inferredRed": 26,
            "playerTrialScore": -6,
            "oppTrialScore": 0,
            "playerTotalScore": 26,
            "oppTotalScore": -341,
            "waitTime": 6715.688926369977,
            "responseTime": 1642582224999,
            "catchQuestion": "How many <b class=\"r\">red<\/b> marbles did your opponent report drawing? ",
            "catchKey": -1,
            "catchResponse": -1,
            "catchTime": 1642582172355,
            "trialTime": 0
        },
        {
            "exptPart": "trial",
            "trialNumber": 68,
            "roleCurrent": "sender",
            "marblesSampled": 100,
            "probRed": 0.5,
            "lambda": 5,
            "goal": "over",
            "cost": "unif",
            "drawnRed": 47,
            "reportedRed": 60,
            "inferredRed": 53,
            "playerTrialScore": 6,
            "oppTrialScore": -6,
            "playerTotalScore": 32,
            "oppTotalScore": -347,
            "waitTime": 2407.0185969278664,
            "responseTime": 1642582248879,
            "catchQuestion": "How many <b class=\"r\">red<\/b> marbles did your opponent report drawing? ",
            "catchKey": -1,
            "catchResponse": -1,
            "catchTime": 1642582172355,
            "trialTime": 0
        },
        {
            "exptPart": "trial",
            "trialNumber": 69,
            "roleCurrent": "receiver",
            "marblesSampled": 100,
            "probRed": 0.5,
            "lambda": 5,
            "goal": "over",
            "cost": "unif",
            "drawnRed": 62,
            "reportedRed": 68,
            "inferredRed": 51,
            "playerTrialScore": -11,
            "oppTrialScore": 0,
            "playerTotalScore": 21,
            "oppTotalScore": -347,
            "waitTime": 5561.660155757276,
            "responseTime": 1642582261014,
            "catchQuestion": "How many <b class=\"r\">red<\/b> marbles did your opponent report drawing? ",
            "catchKey": -1,
            "catchResponse": -1,
            "catchTime": 1642582172355,
            "trialTime": 0
        },
        {
            "exptPart": "trial",
            "trialNumber": 70,
            "roleCurrent": "sender",
            "marblesSampled": 100,
            "probRed": 0.5,
            "lambda": 5,
            "goal": "over",
            "cost": "unif",
            "drawnRed": 51,
            "reportedRed": 68,
            "inferredRed": 62,
            "playerTrialScore": 11,
            "oppTrialScore": -11,
            "playerTotalScore": 32,
            "oppTotalScore": -358,
            "waitTime": 3024.54052491475,
            "responseTime": 1642582285782,
            "catchQuestion": "How many <b class=\"r\">red<\/b> marbles did your opponent report drawing? ",
            "catchKey": -1,
            "catchResponse": -1,
            "catchTime": 1642582285782,
            "trialTime": 0
        },
        {
            "exptPart": "trial",
            "trialNumber": 71,
            "roleCurrent": "receiver",
            "marblesSampled": 100,
            "probRed": 0.5,
            "lambda": 5,
            "goal": "over",
            "cost": "unif",
            "drawnRed": 50,
            "reportedRed": 60,
            "inferredRed": 45,
            "playerTrialScore": -5,
            "oppTrialScore": 0,
            "playerTotalScore": 27,
            "oppTotalScore": -358,
            "waitTime": 5181.056712681648,
            "responseTime": 1642582298635,
            "catchQuestion": "How many <b class=\"r\">red<\/b> marbles did your opponent report drawing? ",
            "catchKey": -1,
            "catchResponse": -1,
            "catchTime": 1642582285782,
            "trialTime": 0
        },
        {
            "exptPart": "trial",
            "trialNumber": 72,
            "roleCurrent": "sender",
            "marblesSampled": 100,
            "probRed": 0.5,
            "lambda": 5,
            "goal": "over",
            "cost": "unif",
            "drawnRed": 59,
            "reportedRed": 68,
            "inferredRed": 64,
            "playerTrialScore": 5,
            "oppTrialScore": -5,
            "playerTotalScore": 32,
            "oppTotalScore": -363,
            "waitTime": 2490.6774193199913,
            "responseTime": 1642582317505,
            "catchQuestion": "How many <b class=\"r\">red<\/b> marbles did your opponent report drawing? ",
            "catchKey": -1,
            "catchResponse": -1,
            "catchTime": 1642582285782,
            "trialTime": 0
        },
        {
            "exptPart": "trial",
            "trialNumber": 73,
            "roleCurrent": "receiver",
            "marblesSampled": 100,
            "probRed": 0.5,
            "lambda": 5,
            "goal": "over",
            "cost": "unif",
            "drawnRed": 10,
            "reportedRed": 17,
            "inferredRed": 6,
            "playerTrialScore": -4,
            "oppTrialScore": 0,
            "playerTotalScore": 28,
            "oppTotalScore": -363,
            "waitTime": 6467.362009541478,
            "responseTime": 1642582329093,
            "catchQuestion": "How many <b class=\"r\">red<\/b> marbles did your opponent report drawing? ",
            "catchKey": -1,
            "catchResponse": -1,
            "catchTime": 1642582285782,
            "trialTime": 0
        },
        {
            "exptPart": "trial",
            "trialNumber": 74,
            "roleCurrent": "sender",
            "marblesSampled": 100,
            "probRed": 0.5,
            "lambda": 5,
            "goal": "over",
            "cost": "unif",
            "drawnRed": 75,
            "reportedRed": 84,
            "inferredRed": 79,
            "playerTrialScore": 4,
            "oppTrialScore": -4,
            "playerTotalScore": 32,
            "oppTotalScore": -367,
            "waitTime": 2491.2148632295325,
            "responseTime": 1642582352411,
            "catchQuestion": "How many <b class=\"r\">red<\/b> marbles did your opponent report drawing? ",
            "catchKey": -1,
            "catchResponse": -1,
            "catchTime": 1642582285782,
            "trialTime": 0
        },
        {
            "exptPart": "trial",
            "trialNumber": 75,
            "roleCurrent": "receiver",
            "marblesSampled": 100,
            "probRed": 0.5,
            "lambda": 5,
            "goal": "over",
            "cost": "unif",
            "drawnRed": 62,
            "reportedRed": 68,
            "inferredRed": 49,
            "playerTrialScore": -13,
            "oppTrialScore": 0,
            "playerTotalScore": 19,
            "oppTotalScore": -367,
            "waitTime": 7399.853126712083,
            "responseTime": 1642582365963,
            "catchQuestion": "How many <b class=\"r\">red<\/b> marbles did your opponent report drawing? ",
            "catchKey": -1,
            "catchResponse": -1,
            "catchTime": 1642582365963,
            "trialTime": 0
        },
        {
            "exptPart": "trial",
            "trialNumber": 76,
            "roleCurrent": "sender",
            "marblesSampled": 100,
            "probRed": 0.5,
            "lambda": 5,
            "goal": "over",
            "cost": "unif",
            "drawnRed": 70,
            "reportedRed": 82,
            "inferredRed": 72,
            "playerTrialScore": 2,
            "oppTrialScore": -2,
            "playerTotalScore": 21,
            "oppTotalScore": -369,
            "waitTime": 3146.4352784071198,
            "responseTime": 1642582390619,
            "catchQuestion": "How many <b class=\"r\">red<\/b> marbles did your opponent report drawing? ",
            "catchKey": -1,
            "catchResponse": -1,
            "catchTime": 1642582365963,
            "trialTime": 0
        },
        {
            "exptPart": "trial",
            "trialNumber": 77,
            "roleCurrent": "receiver",
            "marblesSampled": 100,
            "probRed": 0.5,
            "lambda": 5,
            "goal": "over",
            "cost": "unif",
            "drawnRed": 42,
            "reportedRed": 46,
            "inferredRed": 25,
            "playerTrialScore": -17,
            "oppTrialScore": 0,
            "playerTotalScore": 4,
            "oppTotalScore": -369,
            "waitTime": 6098.969662138161,
            "responseTime": 1642582401936,
            "catchQuestion": "How many <b class=\"r\">red<\/b> marbles did your opponent report drawing? ",
            "catchKey": -1,
            "catchResponse": -1,
            "catchTime": 1642582365963,
            "trialTime": 0
        },
        {
            "exptPart": "trial",
            "trialNumber": 78,
            "roleCurrent": "sender",
            "marblesSampled": 100,
            "probRed": 0.5,
            "lambda": 5,
            "goal": "over",
            "cost": "unif",
            "drawnRed": 37,
            "reportedRed": 51,
            "inferredRed": 48,
            "playerTrialScore": 11,
            "oppTrialScore": -11,
            "playerTotalScore": 15,
            "oppTotalScore": -380,
            "waitTime": 2087.229925740548,
            "responseTime": 1642582424803,
            "catchQuestion": "How many <b class=\"r\">red<\/b> marbles did your opponent report drawing? ",
            "catchKey": -1,
            "catchResponse": -1,
            "catchTime": 1642582365963,
            "trialTime": 0
        },
        {
            "exptPart": "trial",
            "trialNumber": 79,
            "roleCurrent": "receiver",
            "marblesSampled": 100,
            "probRed": 0.5,
            "lambda": 5,
            "goal": "over",
            "cost": "unif",
            "drawnRed": 51,
            "reportedRed": 55,
            "inferredRed": 37,
            "playerTrialScore": -14,
            "oppTrialScore": 0,
            "playerTotalScore": 1,
            "oppTotalScore": -380,
            "waitTime": 5941.892585045458,
            "responseTime": 1642582437466,
            "catchQuestion": "How many <b class=\"r\">red<\/b> marbles did your opponent report drawing? ",
            "catchKey": -1,
            "catchResponse": -1,
            "catchTime": 1642582365963,
            "trialTime": 0
        },
        {
            "exptPart": "trial",
            "trialNumber": 80,
            "roleCurrent": "sender",
            "marblesSampled": 100,
            "probRed": 0.5,
            "lambda": 5,
            "goal": "over",
            "cost": "unif",
            "drawnRed": 81,
            "reportedRed": 89,
            "inferredRed": 86,
            "playerTrialScore": 5,
            "oppTrialScore": -5,
            "playerTotalScore": 6,
            "oppTotalScore": -385,
            "waitTime": 2159.4174069540722,
            "responseTime": 1642582468468,
            "catchQuestion": "How many <b class=\"r\">red<\/b> marbles did your opponent report drawing? ",
            "catchKey": -1,
            "catchResponse": -1,
            "catchTime": 1642582468468,
            "trialTime": 0
        },
        {
            "exptPart": "trial",
            "trialNumber": 81,
            "roleCurrent": "receiver",
            "marblesSampled": 100,
            "probRed": 0.5,
            "lambda": 5,
            "goal": "over",
            "cost": "unif",
            "drawnRed": 46,
            "reportedRed": 50,
            "inferredRed": 41,
            "playerTrialScore": -5,
            "oppTrialScore": 0,
            "playerTotalScore": 1,
            "oppTotalScore": -385,
            "waitTime": 5219.583965874583,
            "responseTime": 1642582479809,
            "catchQuestion": "How many <b class=\"r\">red<\/b> marbles did your opponent report drawing? ",
            "catchKey": 50,
            "catchResponse": 50,
            "catchTime": 1642582479809,
            "trialTime": 0
        },
        {
            "exptPart": "trial",
            "trialNumber": 82,
            "roleCurrent": "sender",
            "marblesSampled": 100,
            "probRed": 0.5,
            "lambda": 5,
            "goal": "over",
            "cost": "unif",
            "drawnRed": 46,
            "reportedRed": 56,
            "inferredRed": 46,
            "playerTrialScore": 0,
            "oppTrialScore": 0,
            "playerTotalScore": 1,
            "oppTotalScore": -385,
            "waitTime": 2680.636002281941,
            "responseTime": 1642582508112,
            "catchQuestion": "How many <b class=\"r\">red<\/b> marbles did your opponent report drawing? ",
            "catchKey": -1,
            "catchResponse": -1,
            "catchTime": 1642582479809,
            "trialTime": 0
        },
        {
            "exptPart": "trial",
            "trialNumber": 83,
            "roleCurrent": "receiver",
            "marblesSampled": 100,
            "probRed": 0.5,
            "lambda": 5,
            "goal": "over",
            "cost": "unif",
            "drawnRed": 28,
            "reportedRed": 35,
            "inferredRed": 16,
            "playerTrialScore": -12,
            "oppTrialScore": 0,
            "playerTotalScore": -11,
            "oppTotalScore": -385,
            "waitTime": 5218.316806073051,
            "responseTime": 1642582519402,
            "catchQuestion": "How many <b class=\"r\">red<\/b> marbles did your opponent report drawing? ",
            "catchKey": -1,
            "catchResponse": -1,
            "catchTime": 1642582479809,
            "trialTime": 0
        },
        {
            "exptPart": "trial",
            "trialNumber": 84,
            "roleCurrent": "sender",
            "marblesSampled": 100,
            "probRed": 0.5,
            "lambda": 5,
            "goal": "over",
            "cost": "unif",
            "drawnRed": 37,
            "reportedRed": 61,
            "inferredRed": 58,
            "playerTrialScore": 21,
            "oppTrialScore": -21,
            "playerTotalScore": 10,
            "oppTotalScore": -406,
            "waitTime": 2124.894874124212,
            "responseTime": 1642582547297,
            "catchQuestion": "How many <b class=\"r\">red<\/b> marbles did your opponent report drawing? ",
            "catchKey": -1,
            "catchResponse": -1,
            "catchTime": 1642582479809,
            "trialTime": 0
        },
        {
            "exptPart": "trial",
            "trialNumber": 85,
            "roleCurrent": "receiver",
            "marblesSampled": 100,
            "probRed": 0.5,
            "lambda": 5,
            "goal": "over",
            "cost": "unif",
            "drawnRed": 61,
            "reportedRed": 63,
            "inferredRed": 47,
            "playerTrialScore": -14,
            "oppTrialScore": 0,
            "playerTotalScore": -4,
            "oppTotalScore": -406,
            "waitTime": 6311.3643344625325,
            "responseTime": 1642582558734,
            "catchQuestion": "How many <b class=\"r\">red<\/b> marbles did your opponent report drawing? ",
            "catchKey": -1,
            "catchResponse": -1,
            "catchTime": 1642582558734,
            "trialTime": 0
        },
        {
            "exptPart": "trial",
            "trialNumber": 86,
            "roleCurrent": "sender",
            "marblesSampled": 100,
            "probRed": 0.5,
            "lambda": 5,
            "goal": "over",
            "cost": "unif",
            "drawnRed": 32,
            "reportedRed": 50,
            "inferredRed": 47,
            "playerTrialScore": 15,
            "oppTrialScore": -15,
            "playerTotalScore": 11,
            "oppTotalScore": -421,
            "waitTime": 2194.245481845828,
            "responseTime": 1642582588043,
            "catchQuestion": "How many <b class=\"r\">red<\/b> marbles did your opponent report drawing? ",
            "catchKey": -1,
            "catchResponse": -1,
            "catchTime": 1642582558734,
            "trialTime": 0
        },
        {
            "exptPart": "trial",
            "trialNumber": 87,
            "roleCurrent": "receiver",
            "marblesSampled": 100,
            "probRed": 0.5,
            "lambda": 5,
            "goal": "over",
            "cost": "unif",
            "drawnRed": 65,
            "reportedRed": 72,
            "inferredRed": 56,
            "playerTrialScore": -9,
            "oppTrialScore": 0,
            "playerTotalScore": 2,
            "oppTotalScore": -421,
            "waitTime": 5311.225215406282,
            "responseTime": 1642582598050,
            "catchQuestion": "How many <b class=\"r\">red<\/b> marbles did your opponent report drawing? ",
            "catchKey": -1,
            "catchResponse": -1,
            "catchTime": 1642582558734,
            "trialTime": 0
        },
        {
            "exptPart": "trial",
            "trialNumber": 88,
            "roleCurrent": "sender",
            "marblesSampled": 100,
            "probRed": 0.5,
            "lambda": 5,
            "goal": "over",
            "cost": "unif",
            "drawnRed": 23,
            "reportedRed": 49,
            "inferredRed": 44,
            "playerTrialScore": 21,
            "oppTrialScore": -21,
            "playerTotalScore": 23,
            "oppTotalScore": -442,
            "waitTime": 2235.758972566339,
            "responseTime": 1642582632898,
            "catchQuestion": "How many <b class=\"r\">red<\/b> marbles did your opponent report drawing? ",
            "catchKey": -1,
            "catchResponse": -1,
            "catchTime": 1642582558734,
            "trialTime": 0
        },
        {
            "exptPart": "trial",
            "trialNumber": 89,
            "roleCurrent": "receiver",
            "marblesSampled": 100,
            "probRed": 0.5,
            "lambda": 5,
            "goal": "over",
            "cost": "unif",
            "drawnRed": 33,
            "reportedRed": 37,
            "inferredRed": 20,
            "playerTrialScore": -13,
            "oppTrialScore": 0,
            "playerTotalScore": 10,
            "oppTotalScore": -442,
            "waitTime": 6593.157073064984,
            "responseTime": 1642582644258,
            "catchQuestion": "How many <b class=\"r\">red<\/b> marbles did your opponent report drawing? ",
            "catchKey": -1,
            "catchResponse": -1,
            "catchTime": 1642582558734,
            "trialTime": 0
        },
        {
            "exptPart": "trial",
            "trialNumber": 90,
            "roleCurrent": "sender",
            "marblesSampled": 100,
            "probRed": 0.5,
            "lambda": 5,
            "goal": "over",
            "cost": "unif",
            "drawnRed": 44,
            "reportedRed": 60,
            "inferredRed": 58,
            "playerTrialScore": 14,
            "oppTrialScore": -14,
            "playerTotalScore": 24,
            "oppTotalScore": -456,
            "waitTime": 2955.631737393798,
            "responseTime": 1642582669775,
            "catchQuestion": "How many <b class=\"r\">red<\/b> marbles did your opponent report drawing? ",
            "catchKey": -1,
            "catchResponse": -1,
            "catchTime": 1642582669775,
            "trialTime": 0
        },
        {
            "exptPart": "trial",
            "trialNumber": 91,
            "roleCurrent": "receiver",
            "marblesSampled": 100,
            "probRed": 0.5,
            "lambda": 5,
            "goal": "over",
            "cost": "unif",
            "drawnRed": 59,
            "reportedRed": 63,
            "inferredRed": 49,
            "playerTrialScore": -10,
            "oppTrialScore": 0,
            "playerTotalScore": 14,
            "oppTotalScore": -456,
            "waitTime": 5742.935102049138,
            "responseTime": 1642582681413,
            "catchQuestion": "How many <b class=\"r\">red<\/b> marbles did your opponent report drawing? ",
            "catchKey": 63,
            "catchResponse": 61,
            "catchTime": 1642582681413,
            "trialTime": 0
        },
        {
            "exptPart": "trial",
            "trialNumber": 92,
            "roleCurrent": "sender",
            "marblesSampled": 100,
            "probRed": 0.5,
            "lambda": 5,
            "goal": "over",
            "cost": "unif",
            "drawnRed": 30,
            "reportedRed": 54,
            "inferredRed": 48,
            "playerTrialScore": 18,
            "oppTrialScore": -18,
            "playerTotalScore": 32,
            "oppTotalScore": -474,
            "waitTime": 2658.332371427954,
            "responseTime": 1642582726765,
            "catchQuestion": "How many <b class=\"r\">red<\/b> marbles did your opponent report drawing? ",
            "catchKey": -1,
            "catchResponse": -1,
            "catchTime": 1642582681413,
            "trialTime": 0
        },
        {
            "exptPart": "trial",
            "trialNumber": 93,
            "roleCurrent": "receiver",
            "marblesSampled": 100,
            "probRed": 0.5,
            "lambda": 5,
            "goal": "over",
            "cost": "unif",
            "drawnRed": 25,
            "reportedRed": 32,
            "inferredRed": 24,
            "playerTrialScore": -1,
            "oppTrialScore": 0,
            "playerTotalScore": 31,
            "oppTotalScore": -474,
            "waitTime": 7278.663174733803,
            "responseTime": 1642582738559,
            "catchQuestion": "How many <b class=\"r\">red<\/b> marbles did your opponent report drawing? ",
            "catchKey": -1,
            "catchResponse": -1,
            "catchTime": 1642582681413,
            "trialTime": 0
        },
        {
            "exptPart": "trial",
            "trialNumber": 94,
            "roleCurrent": "sender",
            "marblesSampled": 100,
            "probRed": 0.5,
            "lambda": 5,
            "goal": "over",
            "cost": "unif",
            "drawnRed": 38,
            "reportedRed": 52,
            "inferredRed": 42,
            "playerTrialScore": 4,
            "oppTrialScore": -4,
            "playerTotalScore": 35,
            "oppTotalScore": -478,
            "waitTime": 2072.798482556552,
            "responseTime": 1642582761169,
            "catchQuestion": "How many <b class=\"r\">red<\/b> marbles did you actually draw (before any changes)? ",
            "catchKey": 38,
            "catchResponse": 61,
            "catchTime": 1642582761169,
            "trialTime": 0
        },
        {
            "exptPart": "trial",
            "trialNumber": 95,
            "roleCurrent": "receiver",
            "marblesSampled": 100,
            "probRed": 0.5,
            "lambda": 5,
            "goal": "over",
            "cost": "unif",
            "drawnRed": 29,
            "reportedRed": 38,
            "inferredRed": 25,
            "playerTrialScore": -4,
            "oppTrialScore": 0,
            "playerTotalScore": 31,
            "oppTotalScore": -478,
            "waitTime": 7316.9375413231255,
            "responseTime": 1642582781861,
            "catchQuestion": "How many <b class=\"r\">red<\/b> marbles did you actually draw (before any changes)? ",
            "catchKey": -1,
            "catchResponse": -1,
            "catchTime": 1642582781861,
            "trialTime": 0
        },
        {
            "exptPart": "trial",
            "trialNumber": 96,
            "roleCurrent": "sender",
            "marblesSampled": 100,
            "probRed": 0.5,
            "lambda": 5,
            "goal": "over",
            "cost": "unif",
            "drawnRed": 52,
            "reportedRed": 65,
            "inferredRed": 58,
            "playerTrialScore": 6,
            "oppTrialScore": -6,
            "playerTotalScore": 37,
            "oppTotalScore": -484,
            "waitTime": 2801.0654158971047,
            "responseTime": 1642582810552,
            "catchQuestion": "How many <b class=\"r\">red<\/b> marbles did you actually draw (before any changes)? ",
            "catchKey": -1,
            "catchResponse": -1,
            "catchTime": 1642582781861,
            "trialTime": 0
        },
        {
            "exptPart": "trial",
            "trialNumber": 97,
            "roleCurrent": "receiver",
            "marblesSampled": 100,
            "probRed": 0.5,
            "lambda": 5,
            "goal": "over",
            "cost": "unif",
            "drawnRed": 53,
            "reportedRed": 57,
            "inferredRed": 47,
            "playerTrialScore": -6,
            "oppTrialScore": 0,
            "playerTotalScore": 31,
            "oppTotalScore": -484,
            "waitTime": 7009.213159132582,
            "responseTime": 1642582824032,
            "catchQuestion": "How many <b class=\"r\">red<\/b> marbles did you actually draw (before any changes)? ",
            "catchKey": -1,
            "catchResponse": -1,
            "catchTime": 1642582781861,
            "trialTime": 0
        },
        {
            "exptPart": "trial",
            "trialNumber": 98,
            "roleCurrent": "sender",
            "marblesSampled": 100,
            "probRed": 0.5,
            "lambda": 5,
            "goal": "over",
            "cost": "unif",
            "drawnRed": 52,
            "reportedRed": 66,
            "inferredRed": 60,
            "playerTrialScore": 8,
            "oppTrialScore": -8,
            "playerTotalScore": 39,
            "oppTotalScore": -492,
            "waitTime": 2171.1866698182894,
            "responseTime": 1642582849322,
            "catchQuestion": "How many <b class=\"r\">red<\/b> marbles did you actually draw (before any changes)? ",
            "catchKey": -1,
            "catchResponse": -1,
            "catchTime": 1642582781861,
            "trialTime": 0
        },
        {
            "exptPart": "trial",
            "trialNumber": 99,
            "roleCurrent": "receiver",
            "marblesSampled": 100,
            "probRed": 0.5,
            "lambda": 5,
            "goal": "over",
            "cost": "unif",
            "drawnRed": 31,
            "reportedRed": 36,
            "inferredRed": 27,
            "playerTrialScore": -4,
            "oppTrialScore": 0,
            "playerTotalScore": 35,
            "oppTotalScore": -492,
            "waitTime": 6816.692719561062,
            "responseTime": 1642582860968,
            "catchQuestion": "How many <b class=\"r\">red<\/b> marbles did you actually draw (before any changes)? ",
            "catchKey": -1,
            "catchResponse": -1,
            "catchTime": 1642582781861,
            "trialTime": 0
        },
        {
            "exptPart": "trial",
            "trialNumber": 100,
            "roleCurrent": "sender",
            "marblesSampled": 100,
            "probRed": 0.5,
            "lambda": 5,
            "goal": "over",
            "cost": "unif",
            "drawnRed": 69,
            "reportedRed": 75,
            "inferredRed": 70,
            "playerTrialScore": 1,
            "oppTrialScore": -1,
            "playerTotalScore": 36,
            "oppTotalScore": -493,
            "waitTime": 2599.4744081779227,
            "responseTime": 1642582882292,
            "catchQuestion": "How many <b class=\"r\">red<\/b> marbles did you actually draw (before any changes)? ",
            "catchKey": -1,
            "catchResponse": -1,
            "catchTime": 1642582882292,
            "trialTime": 0
        }
    ]
}