{
    "client": {
        "type": "sona",
        "experiment_id": 2228,
        "credit_token": "b315147ae43241ea9c65086cb510cfb7",
        "survey_code": "32427",
        "sid": "sona-32427",
        "window": {
            "width": 1440,
            "height": 789
        },
        "screen": {
            "width": 1440,
            "height": 900
        },
        "userAgent": "Mozilla\/5.0 (Macintosh; Intel Mac OS X 10_15_7) AppleWebKit\/537.36 (KHTML, like Gecko) Chrome\/97.0.4692.71 Safari\/537.36",
        "score": 0,
        "bonus": 0
    },
    "expt": {
        "saveURL": "submit.simple.php",
        "trials": 100,
        "practiceTrials": 2,
        "marblesSampled": 100,
        "probRed": 0.5,
        "lambdaAI": 5,
        "roleFirst": "receiver",
        "roles": [
            "sender",
            "receiver"
        ],
        "cost": "unif",
        "goal": "over",
        "catchTrials": [
            68,
            84,
            26,
            7,
            27,
            15,
            37,
            25,
            99,
            49
        ],
        "scoreTotal": {
            "player": 767,
            "opp": -1117
        },
        "sona": {
            "experiment_id": 2228,
            "credit_token": "b315147ae43241ea9c65086cb510cfb7"
        },
        "pilot": false,
        "debug": false
    },
    "trials": [
        {
            "exptPart": "practice",
            "trialNumber": 1,
            "roleCurrent": "sender",
            "marblesSampled": 100,
            "probRed": 0.5,
            "lambda": 5,
            "drawnRed": 52,
            "reportedRed": 74,
            "inferredRed": 70,
            "playerTrialScore": 18,
            "oppTrialScore": -18,
            "playerTotalScore": 18,
            "oppTotalScore": -18,
            "waitTime": 2240.980083042747,
            "responseTime": 1643036794436,
            "catchQuestion": "How many <b class=\"r\">red<\/b> marbles did you actually draw (before any changes)? ",
            "catchKey": 52,
            "catchResponse": 54,
            "catchTime": 1643036794436,
            "trialTime": 0
        },
        {
            "exptPart": "practice",
            "trialNumber": 2,
            "roleCurrent": "receiver",
            "marblesSampled": 100,
            "probRed": 0.5,
            "lambda": 5,
            "drawnRed": 67,
            "reportedRed": 73,
            "inferredRed": 63,
            "playerTrialScore": -4,
            "oppTrialScore": 0,
            "playerTotalScore": 14,
            "oppTotalScore": -18,
            "waitTime": 6502.942576994266,
            "responseTime": 1643036835075,
            "catchQuestion": "How many <b class=\"r\">red<\/b> marbles did your opponent report drawing? ",
            "catchKey": 73,
            "catchResponse": 73,
            "catchTime": 1643036835075,
            "trialTime": 0
        },
        {
            "exptPart": "trial",
            "trialNumber": 1,
            "roleCurrent": "receiver",
            "marblesSampled": 100,
            "probRed": 0.5,
            "lambda": 5,
            "drawnRed": 36,
            "reportedRed": 41,
            "inferredRed": 50,
            "playerTrialScore": -14,
            "oppTrialScore": 14,
            "playerTotalScore": -14,
            "oppTotalScore": 14,
            "waitTime": 6765.876128379745,
            "responseTime": 1643036865050,
            "catchQuestion": "How many <b class=\"r\">red<\/b> marbles did your opponent report drawing? ",
            "catchKey": -1,
            "catchResponse": -1,
            "catchTime": 1643036835075,
            "trialTime": 0
        },
        {
            "exptPart": "trial",
            "trialNumber": 2,
            "roleCurrent": "sender",
            "marblesSampled": 100,
            "probRed": 0.5,
            "lambda": 5,
            "drawnRed": 42,
            "reportedRed": 55,
            "inferredRed": 51,
            "playerTrialScore": 9,
            "oppTrialScore": -9,
            "playerTotalScore": -5,
            "oppTotalScore": 5,
            "waitTime": 2300.0429624760554,
            "responseTime": 1643036905280,
            "catchQuestion": "How many <b class=\"r\">red<\/b> marbles did your opponent report drawing? ",
            "catchKey": -1,
            "catchResponse": -1,
            "catchTime": 1643036835075,
            "trialTime": 0
        },
        {
            "exptPart": "trial",
            "trialNumber": 3,
            "roleCurrent": "receiver",
            "marblesSampled": 100,
            "probRed": 0.5,
            "lambda": 5,
            "drawnRed": 38,
            "reportedRed": 41,
            "inferredRed": 45,
            "playerTrialScore": -7,
            "oppTrialScore": 7,
            "playerTotalScore": -12,
            "oppTotalScore": 12,
            "waitTime": 7041.415232871175,
            "responseTime": 1643036917867,
            "catchQuestion": "How many <b class=\"r\">red<\/b> marbles did your opponent report drawing? ",
            "catchKey": -1,
            "catchResponse": -1,
            "catchTime": 1643036835075,
            "trialTime": 0
        },
        {
            "exptPart": "trial",
            "trialNumber": 4,
            "roleCurrent": "sender",
            "marblesSampled": 100,
            "probRed": 0.5,
            "lambda": 5,
            "drawnRed": 82,
            "reportedRed": 50,
            "inferredRed": 47,
            "playerTrialScore": 0,
            "oppTrialScore": -35,
            "playerTotalScore": -12,
            "oppTotalScore": -23,
            "waitTime": 2728.0233361835803,
            "responseTime": 1643036994274,
            "catchQuestion": "How many <b class=\"r\">red<\/b> marbles did your opponent report drawing? ",
            "catchKey": -1,
            "catchResponse": -1,
            "catchTime": 1643036835075,
            "trialTime": 0
        },
        {
            "exptPart": "trial",
            "trialNumber": 5,
            "roleCurrent": "receiver",
            "marblesSampled": 100,
            "probRed": 0.5,
            "lambda": 5,
            "drawnRed": 30,
            "reportedRed": 38,
            "inferredRed": 50,
            "playerTrialScore": -20,
            "oppTrialScore": 20,
            "playerTotalScore": -32,
            "oppTotalScore": -3,
            "waitTime": 6453.374416974844,
            "responseTime": 1643037010257,
            "catchQuestion": "How many <b class=\"r\">red<\/b> marbles did your opponent report drawing? ",
            "catchKey": -1,
            "catchResponse": -1,
            "catchTime": 1643037010257,
            "trialTime": 0
        },
        {
            "exptPart": "trial",
            "trialNumber": 6,
            "roleCurrent": "sender",
            "marblesSampled": 100,
            "probRed": 0.5,
            "lambda": 5,
            "drawnRed": 45,
            "reportedRed": 90,
            "inferredRed": 86,
            "playerTrialScore": 41,
            "oppTrialScore": -41,
            "playerTotalScore": 9,
            "oppTotalScore": -44,
            "waitTime": 2425.1209321836754,
            "responseTime": 1643037067625,
            "catchQuestion": "How many <b class=\"r\">red<\/b> marbles did your opponent report drawing? ",
            "catchKey": -1,
            "catchResponse": -1,
            "catchTime": 1643037010257,
            "trialTime": 0
        },
        {
            "exptPart": "trial",
            "trialNumber": 7,
            "roleCurrent": "receiver",
            "marblesSampled": 100,
            "probRed": 0.5,
            "lambda": 5,
            "drawnRed": 41,
            "reportedRed": 48,
            "inferredRed": 40,
            "playerTrialScore": -1,
            "oppTrialScore": 0,
            "playerTotalScore": 8,
            "oppTotalScore": -44,
            "waitTime": 5898.895057049358,
            "responseTime": 1643037083531,
            "catchQuestion": "How many <b class=\"r\">red<\/b> marbles did your opponent report drawing? ",
            "catchKey": -1,
            "catchResponse": -1,
            "catchTime": 1643037010257,
            "trialTime": 0
        },
        {
            "exptPart": "trial",
            "trialNumber": 8,
            "roleCurrent": "sender",
            "marblesSampled": 100,
            "probRed": 0.5,
            "lambda": 5,
            "drawnRed": 20,
            "reportedRed": 11,
            "inferredRed": 6,
            "playerTrialScore": 0,
            "oppTrialScore": -14,
            "playerTotalScore": 8,
            "oppTotalScore": -58,
            "waitTime": 2588.5229296259363,
            "responseTime": 1643037117138,
            "catchQuestion": "How many <b class=\"r\">red<\/b> marbles did you actually draw (before any changes)? ",
            "catchKey": 20,
            "catchResponse": 21,
            "catchTime": 1643037117138,
            "trialTime": 0
        },
        {
            "exptPart": "trial",
            "trialNumber": 9,
            "roleCurrent": "receiver",
            "marblesSampled": 100,
            "probRed": 0.5,
            "lambda": 5,
            "drawnRed": 38,
            "reportedRed": 41,
            "inferredRed": 40,
            "playerTrialScore": -2,
            "oppTrialScore": 2,
            "playerTotalScore": 6,
            "oppTotalScore": -56,
            "waitTime": 5395.134840900389,
            "responseTime": 1643037143736,
            "catchQuestion": "How many <b class=\"r\">red<\/b> marbles did you actually draw (before any changes)? ",
            "catchKey": -1,
            "catchResponse": -1,
            "catchTime": 1643037117138,
            "trialTime": 0
        },
        {
            "exptPart": "trial",
            "trialNumber": 10,
            "roleCurrent": "sender",
            "marblesSampled": 100,
            "probRed": 0.5,
            "lambda": 5,
            "drawnRed": 82,
            "reportedRed": 79,
            "inferredRed": 74,
            "playerTrialScore": 0,
            "oppTrialScore": -8,
            "playerTotalScore": 6,
            "oppTotalScore": -64,
            "waitTime": 2219.100645075058,
            "responseTime": 1643037173973,
            "catchQuestion": "How many <b class=\"r\">red<\/b> marbles did you actually draw (before any changes)? ",
            "catchKey": -1,
            "catchResponse": -1,
            "catchTime": 1643037173973,
            "trialTime": 0
        },
        {
            "exptPart": "trial",
            "trialNumber": 11,
            "roleCurrent": "receiver",
            "marblesSampled": 100,
            "probRed": 0.5,
            "lambda": 5,
            "drawnRed": 99,
            "reportedRed": 100,
            "inferredRed": 50,
            "playerTrialScore": -49,
            "oppTrialScore": 0,
            "playerTotalScore": -43,
            "oppTotalScore": -64,
            "waitTime": 7416.8338358143765,
            "responseTime": 1643037207074,
            "catchQuestion": "How many <b class=\"r\">red<\/b> marbles did you actually draw (before any changes)? ",
            "catchKey": -1,
            "catchResponse": -1,
            "catchTime": 1643037173973,
            "trialTime": 0
        },
        {
            "exptPart": "trial",
            "trialNumber": 12,
            "roleCurrent": "sender",
            "marblesSampled": 100,
            "probRed": 0.5,
            "lambda": 5,
            "drawnRed": 81,
            "reportedRed": 76,
            "inferredRed": 70,
            "playerTrialScore": 0,
            "oppTrialScore": -11,
            "playerTotalScore": -43,
            "oppTotalScore": -75,
            "waitTime": 2062.886714436716,
            "responseTime": 1643037232733,
            "catchQuestion": "How many <b class=\"r\">red<\/b> marbles did you actually draw (before any changes)? ",
            "catchKey": -1,
            "catchResponse": -1,
            "catchTime": 1643037173973,
            "trialTime": 0
        },
        {
            "exptPart": "trial",
            "trialNumber": 13,
            "roleCurrent": "receiver",
            "marblesSampled": 100,
            "probRed": 0.5,
            "lambda": 5,
            "drawnRed": 87,
            "reportedRed": 91,
            "inferredRed": 65,
            "playerTrialScore": -22,
            "oppTrialScore": 0,
            "playerTotalScore": -65,
            "oppTotalScore": -75,
            "waitTime": 5749.866164867963,
            "responseTime": 1643037248667,
            "catchQuestion": "How many <b class=\"r\">red<\/b> marbles did you actually draw (before any changes)? ",
            "catchKey": -1,
            "catchResponse": -1,
            "catchTime": 1643037173973,
            "trialTime": 0
        },
        {
            "exptPart": "trial",
            "trialNumber": 14,
            "roleCurrent": "sender",
            "marblesSampled": 100,
            "probRed": 0.5,
            "lambda": 5,
            "drawnRed": 73,
            "reportedRed": 75,
            "inferredRed": 72,
            "playerTrialScore": 0,
            "oppTrialScore": -1,
            "playerTotalScore": -65,
            "oppTotalScore": -76,
            "waitTime": 2967.667608077153,
            "responseTime": 1643037271292,
            "catchQuestion": "How many <b class=\"r\">red<\/b> marbles did you actually draw (before any changes)? ",
            "catchKey": -1,
            "catchResponse": -1,
            "catchTime": 1643037173973,
            "trialTime": 0
        },
        {
            "exptPart": "trial",
            "trialNumber": 15,
            "roleCurrent": "receiver",
            "marblesSampled": 100,
            "probRed": 0.5,
            "lambda": 5,
            "drawnRed": 54,
            "reportedRed": 58,
            "inferredRed": 50,
            "playerTrialScore": -4,
            "oppTrialScore": 0,
            "playerTotalScore": -69,
            "oppTotalScore": -76,
            "waitTime": 6610.300249724951,
            "responseTime": 1643037290272,
            "catchQuestion": "How many <b class=\"r\">red<\/b> marbles did you actually draw (before any changes)? ",
            "catchKey": -1,
            "catchResponse": -1,
            "catchTime": 1643037290272,
            "trialTime": 0
        },
        {
            "exptPart": "trial",
            "trialNumber": 16,
            "roleCurrent": "sender",
            "marblesSampled": 100,
            "probRed": 0.5,
            "lambda": 5,
            "drawnRed": 31,
            "reportedRed": 50,
            "inferredRed": 45,
            "playerTrialScore": 14,
            "oppTrialScore": -14,
            "playerTotalScore": -55,
            "oppTotalScore": -90,
            "waitTime": 3016.462394243315,
            "responseTime": 1643037334025,
            "catchQuestion": "How many <b class=\"r\">red<\/b> marbles did you actually draw (before any changes)? ",
            "catchKey": 31,
            "catchResponse": 31,
            "catchTime": 1643037334025,
            "trialTime": 0
        },
        {
            "exptPart": "trial",
            "trialNumber": 17,
            "roleCurrent": "receiver",
            "marblesSampled": 100,
            "probRed": 0.5,
            "lambda": 5,
            "drawnRed": 40,
            "reportedRed": 44,
            "inferredRed": 35,
            "playerTrialScore": -5,
            "oppTrialScore": 0,
            "playerTotalScore": -60,
            "oppTotalScore": -90,
            "waitTime": 5701.344387147075,
            "responseTime": 1643037355511,
            "catchQuestion": "How many <b class=\"r\">red<\/b> marbles did you actually draw (before any changes)? ",
            "catchKey": -1,
            "catchResponse": -1,
            "catchTime": 1643037334025,
            "trialTime": 0
        },
        {
            "exptPart": "trial",
            "trialNumber": 18,
            "roleCurrent": "sender",
            "marblesSampled": 100,
            "probRed": 0.5,
            "lambda": 5,
            "drawnRed": 67,
            "reportedRed": 76,
            "inferredRed": 70,
            "playerTrialScore": 3,
            "oppTrialScore": -3,
            "playerTotalScore": -57,
            "oppTotalScore": -93,
            "waitTime": 2991.9677108690266,
            "responseTime": 1643037385501,
            "catchQuestion": "How many <b class=\"r\">red<\/b> marbles did you actually draw (before any changes)? ",
            "catchKey": -1,
            "catchResponse": -1,
            "catchTime": 1643037334025,
            "trialTime": 0
        },
        {
            "exptPart": "trial",
            "trialNumber": 19,
            "roleCurrent": "receiver",
            "marblesSampled": 100,
            "probRed": 0.5,
            "lambda": 5,
            "drawnRed": 75,
            "reportedRed": 76,
            "inferredRed": 65,
            "playerTrialScore": -10,
            "oppTrialScore": 0,
            "playerTotalScore": -67,
            "oppTotalScore": -93,
            "waitTime": 7233.509996374189,
            "responseTime": 1643037401089,
            "catchQuestion": "How many <b class=\"r\">red<\/b> marbles did you actually draw (before any changes)? ",
            "catchKey": -1,
            "catchResponse": -1,
            "catchTime": 1643037334025,
            "trialTime": 0
        },
        {
            "exptPart": "trial",
            "trialNumber": 20,
            "roleCurrent": "sender",
            "marblesSampled": 100,
            "probRed": 0.5,
            "lambda": 5,
            "drawnRed": 34,
            "reportedRed": 54,
            "inferredRed": 50,
            "playerTrialScore": 16,
            "oppTrialScore": -16,
            "playerTotalScore": -51,
            "oppTotalScore": -109,
            "waitTime": 2730.8383092338063,
            "responseTime": 1643037433401,
            "catchQuestion": "How many <b class=\"r\">red<\/b> marbles did you actually draw (before any changes)? ",
            "catchKey": -1,
            "catchResponse": -1,
            "catchTime": 1643037433401,
            "trialTime": 0
        },
        {
            "exptPart": "trial",
            "trialNumber": 21,
            "roleCurrent": "receiver",
            "marblesSampled": 100,
            "probRed": 0.5,
            "lambda": 5,
            "drawnRed": 54,
            "reportedRed": 56,
            "inferredRed": 45,
            "playerTrialScore": -9,
            "oppTrialScore": 0,
            "playerTotalScore": -60,
            "oppTotalScore": -109,
            "waitTime": 6960.2566622289,
            "responseTime": 1643037451538,
            "catchQuestion": "How many <b class=\"r\">red<\/b> marbles did you actually draw (before any changes)? ",
            "catchKey": -1,
            "catchResponse": -1,
            "catchTime": 1643037433401,
            "trialTime": 0
        },
        {
            "exptPart": "trial",
            "trialNumber": 22,
            "roleCurrent": "sender",
            "marblesSampled": 100,
            "probRed": 0.5,
            "lambda": 5,
            "drawnRed": 25,
            "reportedRed": 57,
            "inferredRed": 51,
            "playerTrialScore": 26,
            "oppTrialScore": -26,
            "playerTotalScore": -34,
            "oppTotalScore": -135,
            "waitTime": 2803.161968689632,
            "responseTime": 1643037502384,
            "catchQuestion": "How many <b class=\"r\">red<\/b> marbles did you actually draw (before any changes)? ",
            "catchKey": -1,
            "catchResponse": -1,
            "catchTime": 1643037433401,
            "trialTime": 0
        },
        {
            "exptPart": "trial",
            "trialNumber": 23,
            "roleCurrent": "receiver",
            "marblesSampled": 100,
            "probRed": 0.5,
            "lambda": 5,
            "drawnRed": 20,
            "reportedRed": 25,
            "inferredRed": 34,
            "playerTrialScore": -14,
            "oppTrialScore": 14,
            "playerTotalScore": -48,
            "oppTotalScore": -121,
            "waitTime": 6665.167828104675,
            "responseTime": 1643037519847,
            "catchQuestion": "How many <b class=\"r\">red<\/b> marbles did you actually draw (before any changes)? ",
            "catchKey": -1,
            "catchResponse": -1,
            "catchTime": 1643037433401,
            "trialTime": 0
        },
        {
            "exptPart": "trial",
            "trialNumber": 24,
            "roleCurrent": "sender",
            "marblesSampled": 100,
            "probRed": 0.5,
            "lambda": 5,
            "drawnRed": 62,
            "reportedRed": 83,
            "inferredRed": 76,
            "playerTrialScore": 14,
            "oppTrialScore": -14,
            "playerTotalScore": -34,
            "oppTotalScore": -135,
            "waitTime": 2884.8989846291906,
            "responseTime": 1643037562265,
            "catchQuestion": "How many <b class=\"r\">red<\/b> marbles did you actually draw (before any changes)? ",
            "catchKey": -1,
            "catchResponse": -1,
            "catchTime": 1643037433401,
            "trialTime": 0
        },
        {
            "exptPart": "trial",
            "trialNumber": 25,
            "roleCurrent": "receiver",
            "marblesSampled": 100,
            "probRed": 0.5,
            "lambda": 5,
            "drawnRed": 42,
            "reportedRed": 45,
            "inferredRed": 53,
            "playerTrialScore": -11,
            "oppTrialScore": 11,
            "playerTotalScore": -45,
            "oppTotalScore": -124,
            "waitTime": 5678.099945636599,
            "responseTime": 1643037574591,
            "catchQuestion": "How many <b class=\"r\">red<\/b> marbles did you actually draw (before any changes)? ",
            "catchKey": -1,
            "catchResponse": -1,
            "catchTime": 1643037574591,
            "trialTime": 0
        },
        {
            "exptPart": "trial",
            "trialNumber": 26,
            "roleCurrent": "sender",
            "marblesSampled": 100,
            "probRed": 0.5,
            "lambda": 5,
            "drawnRed": 65,
            "reportedRed": 91,
            "inferredRed": 86,
            "playerTrialScore": 21,
            "oppTrialScore": -21,
            "playerTotalScore": -24,
            "oppTotalScore": -145,
            "waitTime": 2255.4803650644594,
            "responseTime": 1643037618110,
            "catchQuestion": "How many <b class=\"r\">red<\/b> marbles did you actually draw (before any changes)? ",
            "catchKey": 65,
            "catchResponse": 65,
            "catchTime": 1643037618110,
            "trialTime": 0
        },
        {
            "exptPart": "trial",
            "trialNumber": 27,
            "roleCurrent": "receiver",
            "marblesSampled": 100,
            "probRed": 0.5,
            "lambda": 5,
            "drawnRed": 61,
            "reportedRed": 66,
            "inferredRed": 62,
            "playerTrialScore": -1,
            "oppTrialScore": 1,
            "playerTotalScore": -25,
            "oppTotalScore": -144,
            "waitTime": 5202.890154757213,
            "responseTime": 1643037640713,
            "catchQuestion": "How many <b class=\"r\">red<\/b> marbles did your opponent report drawing? ",
            "catchKey": 66,
            "catchResponse": 66,
            "catchTime": 1643037640713,
            "trialTime": 0
        },
        {
            "exptPart": "trial",
            "trialNumber": 28,
            "roleCurrent": "sender",
            "marblesSampled": 100,
            "probRed": 0.5,
            "lambda": 5,
            "drawnRed": 71,
            "reportedRed": 97,
            "inferredRed": 94,
            "playerTrialScore": 23,
            "oppTrialScore": -23,
            "playerTotalScore": -2,
            "oppTotalScore": -167,
            "waitTime": 2381.3008958682285,
            "responseTime": 1643037679832,
            "catchQuestion": "How many <b class=\"r\">red<\/b> marbles did you actually draw (before any changes)? ",
            "catchKey": 71,
            "catchResponse": 71,
            "catchTime": 1643037679832,
            "trialTime": 0
        },
        {
            "exptPart": "trial",
            "trialNumber": 29,
            "roleCurrent": "receiver",
            "marblesSampled": 100,
            "probRed": 0.5,
            "lambda": 5,
            "drawnRed": 39,
            "reportedRed": 44,
            "inferredRed": 34,
            "playerTrialScore": -5,
            "oppTrialScore": 0,
            "playerTotalScore": -7,
            "oppTotalScore": -167,
            "waitTime": 5430.173591206593,
            "responseTime": 1643037703070,
            "catchQuestion": "How many <b class=\"r\">red<\/b> marbles did you actually draw (before any changes)? ",
            "catchKey": -1,
            "catchResponse": -1,
            "catchTime": 1643037679832,
            "trialTime": 0
        },
        {
            "exptPart": "trial",
            "trialNumber": 30,
            "roleCurrent": "sender",
            "marblesSampled": 100,
            "probRed": 0.5,
            "lambda": 5,
            "drawnRed": 34,
            "reportedRed": 74,
            "inferredRed": 66,
            "playerTrialScore": 32,
            "oppTrialScore": -32,
            "playerTotalScore": 25,
            "oppTotalScore": -199,
            "waitTime": 2392.6682939827815,
            "responseTime": 1643037764351,
            "catchQuestion": "How many <b class=\"r\">red<\/b> marbles did you actually draw (before any changes)? ",
            "catchKey": -1,
            "catchResponse": -1,
            "catchTime": 1643037764351,
            "trialTime": 0
        },
        {
            "exptPart": "trial",
            "trialNumber": 31,
            "roleCurrent": "receiver",
            "marblesSampled": 100,
            "probRed": 0.5,
            "lambda": 5,
            "drawnRed": 42,
            "reportedRed": 49,
            "inferredRed": 37,
            "playerTrialScore": -5,
            "oppTrialScore": 0,
            "playerTotalScore": 20,
            "oppTotalScore": -199,
            "waitTime": 5405.593284427026,
            "responseTime": 1643037789474,
            "catchQuestion": "How many <b class=\"r\">red<\/b> marbles did you actually draw (before any changes)? ",
            "catchKey": -1,
            "catchResponse": -1,
            "catchTime": 1643037764351,
            "trialTime": 0
        },
        {
            "exptPart": "trial",
            "trialNumber": 32,
            "roleCurrent": "sender",
            "marblesSampled": 100,
            "probRed": 0.5,
            "lambda": 5,
            "drawnRed": 69,
            "reportedRed": 91,
            "inferredRed": 85,
            "playerTrialScore": 16,
            "oppTrialScore": -16,
            "playerTotalScore": 36,
            "oppTotalScore": -215,
            "waitTime": 2909.3227815815917,
            "responseTime": 1643037821583,
            "catchQuestion": "How many <b class=\"r\">red<\/b> marbles did you actually draw (before any changes)? ",
            "catchKey": -1,
            "catchResponse": -1,
            "catchTime": 1643037764351,
            "trialTime": 0
        },
        {
            "exptPart": "trial",
            "trialNumber": 33,
            "roleCurrent": "receiver",
            "marblesSampled": 100,
            "probRed": 0.5,
            "lambda": 5,
            "drawnRed": 48,
            "reportedRed": 51,
            "inferredRed": 45,
            "playerTrialScore": -3,
            "oppTrialScore": 0,
            "playerTotalScore": 33,
            "oppTotalScore": -215,
            "waitTime": 6451.765983887593,
            "responseTime": 1643037834659,
            "catchQuestion": "How many <b class=\"r\">red<\/b> marbles did you actually draw (before any changes)? ",
            "catchKey": -1,
            "catchResponse": -1,
            "catchTime": 1643037764351,
            "trialTime": 0
        },
        {
            "exptPart": "trial",
            "trialNumber": 34,
            "roleCurrent": "sender",
            "marblesSampled": 100,
            "probRed": 0.5,
            "lambda": 5,
            "drawnRed": 28,
            "reportedRed": 92,
            "inferredRed": 89,
            "playerTrialScore": 61,
            "oppTrialScore": -61,
            "playerTotalScore": 94,
            "oppTotalScore": -276,
            "waitTime": 2147.4653975105175,
            "responseTime": 1643037899830,
            "catchQuestion": "How many <b class=\"r\">red<\/b> marbles did you actually draw (before any changes)? ",
            "catchKey": -1,
            "catchResponse": -1,
            "catchTime": 1643037764351,
            "trialTime": 0
        },
        {
            "exptPart": "trial",
            "trialNumber": 35,
            "roleCurrent": "receiver",
            "marblesSampled": 100,
            "probRed": 0.5,
            "lambda": 5,
            "drawnRed": 58,
            "reportedRed": 62,
            "inferredRed": 47,
            "playerTrialScore": -11,
            "oppTrialScore": 0,
            "playerTotalScore": 83,
            "oppTotalScore": -276,
            "waitTime": 6341.221305578161,
            "responseTime": 1643037914360,
            "catchQuestion": "How many <b class=\"r\">red<\/b> marbles did you actually draw (before any changes)? ",
            "catchKey": -1,
            "catchResponse": -1,
            "catchTime": 1643037914361,
            "trialTime": 0
        },
        {
            "exptPart": "trial",
            "trialNumber": 36,
            "roleCurrent": "sender",
            "marblesSampled": 100,
            "probRed": 0.5,
            "lambda": 5,
            "drawnRed": 50,
            "reportedRed": 72,
            "inferredRed": 64,
            "playerTrialScore": 14,
            "oppTrialScore": -14,
            "playerTotalScore": 97,
            "oppTotalScore": -290,
            "waitTime": 3230.694672291092,
            "responseTime": 1643037963141,
            "catchQuestion": "How many <b class=\"r\">red<\/b> marbles did you actually draw (before any changes)? ",
            "catchKey": -1,
            "catchResponse": -1,
            "catchTime": 1643037914361,
            "trialTime": 0
        },
        {
            "exptPart": "trial",
            "trialNumber": 37,
            "roleCurrent": "receiver",
            "marblesSampled": 100,
            "probRed": 0.5,
            "lambda": 5,
            "drawnRed": 75,
            "reportedRed": 81,
            "inferredRed": 68,
            "playerTrialScore": -7,
            "oppTrialScore": 0,
            "playerTotalScore": 90,
            "oppTotalScore": -290,
            "waitTime": 5677.523420984542,
            "responseTime": 1643037978693,
            "catchQuestion": "How many <b class=\"r\">red<\/b> marbles did you actually draw (before any changes)? ",
            "catchKey": -1,
            "catchResponse": -1,
            "catchTime": 1643037914361,
            "trialTime": 0
        },
        {
            "exptPart": "trial",
            "trialNumber": 38,
            "roleCurrent": "sender",
            "marblesSampled": 100,
            "probRed": 0.5,
            "lambda": 5,
            "drawnRed": 67,
            "reportedRed": 75,
            "inferredRed": 71,
            "playerTrialScore": 4,
            "oppTrialScore": -4,
            "playerTotalScore": 94,
            "oppTotalScore": -294,
            "waitTime": 2256.9511683832598,
            "responseTime": 1643037996904,
            "catchQuestion": "How many <b class=\"r\">red<\/b> marbles did you actually draw (before any changes)? ",
            "catchKey": 67,
            "catchResponse": 67,
            "catchTime": 1643037996905,
            "trialTime": 0
        },
        {
            "exptPart": "trial",
            "trialNumber": 39,
            "roleCurrent": "receiver",
            "marblesSampled": 100,
            "probRed": 0.5,
            "lambda": 5,
            "drawnRed": 40,
            "reportedRed": 43,
            "inferredRed": 35,
            "playerTrialScore": -5,
            "oppTrialScore": 0,
            "playerTotalScore": 89,
            "oppTotalScore": -294,
            "waitTime": 6936.43199579977,
            "responseTime": 1643038023559,
            "catchQuestion": "How many <b class=\"r\">red<\/b> marbles did you actually draw (before any changes)? ",
            "catchKey": -1,
            "catchResponse": -1,
            "catchTime": 1643037996905,
            "trialTime": 0
        },
        {
            "exptPart": "trial",
            "trialNumber": 40,
            "roleCurrent": "sender",
            "marblesSampled": 100,
            "probRed": 0.5,
            "lambda": 5,
            "drawnRed": 60,
            "reportedRed": 69,
            "inferredRed": 60,
            "playerTrialScore": 0,
            "oppTrialScore": 0,
            "playerTotalScore": 89,
            "oppTotalScore": -294,
            "waitTime": 3088.1702902998672,
            "responseTime": 1643038048624,
            "catchQuestion": "How many <b class=\"r\">red<\/b> marbles did you actually draw (before any changes)? ",
            "catchKey": -1,
            "catchResponse": -1,
            "catchTime": 1643038048624,
            "trialTime": 0
        },
        {
            "exptPart": "trial",
            "trialNumber": 41,
            "roleCurrent": "receiver",
            "marblesSampled": 100,
            "probRed": 0.5,
            "lambda": 5,
            "drawnRed": 40,
            "reportedRed": 46,
            "inferredRed": 35,
            "playerTrialScore": -5,
            "oppTrialScore": 0,
            "playerTotalScore": 84,
            "oppTotalScore": -294,
            "waitTime": 6889.655979055159,
            "responseTime": 1643038072493,
            "catchQuestion": "How many <b class=\"r\">red<\/b> marbles did you actually draw (before any changes)? ",
            "catchKey": -1,
            "catchResponse": -1,
            "catchTime": 1643038048624,
            "trialTime": 0
        },
        {
            "exptPart": "trial",
            "trialNumber": 42,
            "roleCurrent": "sender",
            "marblesSampled": 100,
            "probRed": 0.5,
            "lambda": 5,
            "drawnRed": 27,
            "reportedRed": 94,
            "inferredRed": 90,
            "playerTrialScore": 63,
            "oppTrialScore": -63,
            "playerTotalScore": 147,
            "oppTotalScore": -357,
            "waitTime": 2290.010179059315,
            "responseTime": 1643038138407,
            "catchQuestion": "How many <b class=\"r\">red<\/b> marbles did you actually draw (before any changes)? ",
            "catchKey": -1,
            "catchResponse": -1,
            "catchTime": 1643038048624,
            "trialTime": 0
        },
        {
            "exptPart": "trial",
            "trialNumber": 43,
            "roleCurrent": "receiver",
            "marblesSampled": 100,
            "probRed": 0.5,
            "lambda": 5,
            "drawnRed": 26,
            "reportedRed": 28,
            "inferredRed": 36,
            "playerTrialScore": -10,
            "oppTrialScore": 10,
            "playerTotalScore": 137,
            "oppTotalScore": -347,
            "waitTime": 7015.672895665761,
            "responseTime": 1643038155548,
            "catchQuestion": "How many <b class=\"r\">red<\/b> marbles did you actually draw (before any changes)? ",
            "catchKey": -1,
            "catchResponse": -1,
            "catchTime": 1643038048624,
            "trialTime": 0
        },
        {
            "exptPart": "trial",
            "trialNumber": 44,
            "roleCurrent": "sender",
            "marblesSampled": 100,
            "probRed": 0.5,
            "lambda": 5,
            "drawnRed": 71,
            "reportedRed": 90,
            "inferredRed": 86,
            "playerTrialScore": 15,
            "oppTrialScore": -15,
            "playerTotalScore": 152,
            "oppTotalScore": -362,
            "waitTime": 2594.7661724823824,
            "responseTime": 1643038185281,
            "catchQuestion": "How many <b class=\"r\">red<\/b> marbles did you actually draw (before any changes)? ",
            "catchKey": -1,
            "catchResponse": -1,
            "catchTime": 1643038048624,
            "trialTime": 0
        },
        {
            "exptPart": "trial",
            "trialNumber": 45,
            "roleCurrent": "receiver",
            "marblesSampled": 100,
            "probRed": 0.5,
            "lambda": 5,
            "drawnRed": 58,
            "reportedRed": 68,
            "inferredRed": 57,
            "playerTrialScore": -1,
            "oppTrialScore": 0,
            "playerTotalScore": 151,
            "oppTotalScore": -362,
            "waitTime": 6234.231108281243,
            "responseTime": 1643038203557,
            "catchQuestion": "How many <b class=\"r\">red<\/b> marbles did you actually draw (before any changes)? ",
            "catchKey": -1,
            "catchResponse": -1,
            "catchTime": 1643038203557,
            "trialTime": 0
        },
        {
            "exptPart": "trial",
            "trialNumber": 46,
            "roleCurrent": "sender",
            "marblesSampled": 100,
            "probRed": 0.5,
            "lambda": 5,
            "drawnRed": 82,
            "reportedRed": 95,
            "inferredRed": 90,
            "playerTrialScore": 8,
            "oppTrialScore": -8,
            "playerTotalScore": 159,
            "oppTotalScore": -370,
            "waitTime": 2120.363125601491,
            "responseTime": 1643038233211,
            "catchQuestion": "How many <b class=\"r\">red<\/b> marbles did you actually draw (before any changes)? ",
            "catchKey": -1,
            "catchResponse": -1,
            "catchTime": 1643038203557,
            "trialTime": 0
        },
        {
            "exptPart": "trial",
            "trialNumber": 47,
            "roleCurrent": "receiver",
            "marblesSampled": 100,
            "probRed": 0.5,
            "lambda": 5,
            "drawnRed": 41,
            "reportedRed": 46,
            "inferredRed": 37,
            "playerTrialScore": -4,
            "oppTrialScore": 0,
            "playerTotalScore": 155,
            "oppTotalScore": -370,
            "waitTime": 6203.647394600395,
            "responseTime": 1643038247823,
            "catchQuestion": "How many <b class=\"r\">red<\/b> marbles did you actually draw (before any changes)? ",
            "catchKey": -1,
            "catchResponse": -1,
            "catchTime": 1643038203557,
            "trialTime": 0
        },
        {
            "exptPart": "trial",
            "trialNumber": 48,
            "roleCurrent": "sender",
            "marblesSampled": 100,
            "probRed": 0.5,
            "lambda": 5,
            "drawnRed": 67,
            "reportedRed": 92,
            "inferredRed": 86,
            "playerTrialScore": 19,
            "oppTrialScore": -19,
            "playerTotalScore": 174,
            "oppTotalScore": -389,
            "waitTime": 2373.1009441995875,
            "responseTime": 1643038282554,
            "catchQuestion": "How many <b class=\"r\">red<\/b> marbles did you actually draw (before any changes)? ",
            "catchKey": -1,
            "catchResponse": -1,
            "catchTime": 1643038203557,
            "trialTime": 0
        },
        {
            "exptPart": "trial",
            "trialNumber": 49,
            "roleCurrent": "receiver",
            "marblesSampled": 100,
            "probRed": 0.5,
            "lambda": 5,
            "drawnRed": 11,
            "reportedRed": 14,
            "inferredRed": 18,
            "playerTrialScore": -7,
            "oppTrialScore": 7,
            "playerTotalScore": 167,
            "oppTotalScore": -382,
            "waitTime": 6801.3244163646,
            "responseTime": 1643038296748,
            "catchQuestion": "How many <b class=\"r\">red<\/b> marbles did you actually draw (before any changes)? ",
            "catchKey": -1,
            "catchResponse": -1,
            "catchTime": 1643038203557,
            "trialTime": 0
        },
        {
            "exptPart": "trial",
            "trialNumber": 50,
            "roleCurrent": "sender",
            "marblesSampled": 100,
            "probRed": 0.5,
            "lambda": 5,
            "drawnRed": 60,
            "reportedRed": 82,
            "inferredRed": 78,
            "playerTrialScore": 18,
            "oppTrialScore": -18,
            "playerTotalScore": 185,
            "oppTotalScore": -400,
            "waitTime": 3139.2399439844708,
            "responseTime": 1643038326268,
            "catchQuestion": "How many <b class=\"r\">red<\/b> marbles did you actually draw (before any changes)? ",
            "catchKey": 60,
            "catchResponse": 60,
            "catchTime": 1643038326269,
            "trialTime": 0
        },
        {
            "exptPart": "trial",
            "trialNumber": 51,
            "roleCurrent": "receiver",
            "marblesSampled": 100,
            "probRed": 0.5,
            "lambda": 5,
            "drawnRed": 82,
            "reportedRed": 87,
            "inferredRed": 72,
            "playerTrialScore": -10,
            "oppTrialScore": 0,
            "playerTotalScore": 175,
            "oppTotalScore": -400,
            "waitTime": 5444.079392163945,
            "responseTime": 1643038346252,
            "catchQuestion": "How many <b class=\"r\">red<\/b> marbles did you actually draw (before any changes)? ",
            "catchKey": -1,
            "catchResponse": -1,
            "catchTime": 1643038326269,
            "trialTime": 0
        },
        {
            "exptPart": "trial",
            "trialNumber": 52,
            "roleCurrent": "sender",
            "marblesSampled": 100,
            "probRed": 0.5,
            "lambda": 5,
            "drawnRed": 58,
            "reportedRed": 83,
            "inferredRed": 77,
            "playerTrialScore": 19,
            "oppTrialScore": -19,
            "playerTotalScore": 194,
            "oppTotalScore": -419,
            "waitTime": 2918.5133540078914,
            "responseTime": 1643038381092,
            "catchQuestion": "How many <b class=\"r\">red<\/b> marbles did you actually draw (before any changes)? ",
            "catchKey": -1,
            "catchResponse": -1,
            "catchTime": 1643038326269,
            "trialTime": 0
        },
        {
            "exptPart": "trial",
            "trialNumber": 53,
            "roleCurrent": "receiver",
            "marblesSampled": 100,
            "probRed": 0.5,
            "lambda": 5,
            "drawnRed": 39,
            "reportedRed": 44,
            "inferredRed": 38,
            "playerTrialScore": -1,
            "oppTrialScore": 0,
            "playerTotalScore": 193,
            "oppTotalScore": -419,
            "waitTime": 6576.9933671812505,
            "responseTime": 1643038395180,
            "catchQuestion": "How many <b class=\"r\">red<\/b> marbles did you actually draw (before any changes)? ",
            "catchKey": -1,
            "catchResponse": -1,
            "catchTime": 1643038326269,
            "trialTime": 0
        },
        {
            "exptPart": "trial",
            "trialNumber": 54,
            "roleCurrent": "sender",
            "marblesSampled": 100,
            "probRed": 0.5,
            "lambda": 5,
            "drawnRed": 45,
            "reportedRed": 74,
            "inferredRed": 68,
            "playerTrialScore": 23,
            "oppTrialScore": -23,
            "playerTotalScore": 216,
            "oppTotalScore": -442,
            "waitTime": 2505.4732402999393,
            "responseTime": 1643038434312,
            "catchQuestion": "How many <b class=\"r\">red<\/b> marbles did you actually draw (before any changes)? ",
            "catchKey": -1,
            "catchResponse": -1,
            "catchTime": 1643038326269,
            "trialTime": 0
        },
        {
            "exptPart": "trial",
            "trialNumber": 55,
            "roleCurrent": "receiver",
            "marblesSampled": 100,
            "probRed": 0.5,
            "lambda": 5,
            "drawnRed": 71,
            "reportedRed": 75,
            "inferredRed": 62,
            "playerTrialScore": -9,
            "oppTrialScore": 0,
            "playerTotalScore": 207,
            "oppTotalScore": -442,
            "waitTime": 5962.552206347218,
            "responseTime": 1643038447880,
            "catchQuestion": "How many <b class=\"r\">red<\/b> marbles did you actually draw (before any changes)? ",
            "catchKey": -1,
            "catchResponse": -1,
            "catchTime": 1643038447880,
            "trialTime": 0
        },
        {
            "exptPart": "trial",
            "trialNumber": 56,
            "roleCurrent": "sender",
            "marblesSampled": 100,
            "probRed": 0.5,
            "lambda": 5,
            "drawnRed": 43,
            "reportedRed": 84,
            "inferredRed": 79,
            "playerTrialScore": 36,
            "oppTrialScore": -36,
            "playerTotalScore": 243,
            "oppTotalScore": -478,
            "waitTime": 2118.651398833,
            "responseTime": 1643038501785,
            "catchQuestion": "How many <b class=\"r\">red<\/b> marbles did you actually draw (before any changes)? ",
            "catchKey": -1,
            "catchResponse": -1,
            "catchTime": 1643038447880,
            "trialTime": 0
        },
        {
            "exptPart": "trial",
            "trialNumber": 57,
            "roleCurrent": "receiver",
            "marblesSampled": 100,
            "probRed": 0.5,
            "lambda": 5,
            "drawnRed": 70,
            "reportedRed": 74,
            "inferredRed": 58,
            "playerTrialScore": -12,
            "oppTrialScore": 0,
            "playerTotalScore": 231,
            "oppTotalScore": -478,
            "waitTime": 5667.627087638408,
            "responseTime": 1643038514136,
            "catchQuestion": "How many <b class=\"r\">red<\/b> marbles did you actually draw (before any changes)? ",
            "catchKey": -1,
            "catchResponse": -1,
            "catchTime": 1643038447880,
            "trialTime": 0
        },
        {
            "exptPart": "trial",
            "trialNumber": 58,
            "roleCurrent": "sender",
            "marblesSampled": 100,
            "probRed": 0.5,
            "lambda": 5,
            "drawnRed": 27,
            "reportedRed": 72,
            "inferredRed": 68,
            "playerTrialScore": 41,
            "oppTrialScore": -41,
            "playerTotalScore": 272,
            "oppTotalScore": -519,
            "waitTime": 2435.841866571926,
            "responseTime": 1643038568744,
            "catchQuestion": "How many <b class=\"r\">red<\/b> marbles did you actually draw (before any changes)? ",
            "catchKey": -1,
            "catchResponse": -1,
            "catchTime": 1643038447880,
            "trialTime": 0
        },
        {
            "exptPart": "trial",
            "trialNumber": 59,
            "roleCurrent": "receiver",
            "marblesSampled": 100,
            "probRed": 0.5,
            "lambda": 5,
            "drawnRed": 23,
            "reportedRed": 28,
            "inferredRed": 34,
            "playerTrialScore": -11,
            "oppTrialScore": 11,
            "playerTotalScore": 261,
            "oppTotalScore": -508,
            "waitTime": 5463.94132538304,
            "responseTime": 1643038582369,
            "catchQuestion": "How many <b class=\"r\">red<\/b> marbles did you actually draw (before any changes)? ",
            "catchKey": -1,
            "catchResponse": -1,
            "catchTime": 1643038447880,
            "trialTime": 0
        },
        {
            "exptPart": "trial",
            "trialNumber": 60,
            "roleCurrent": "sender",
            "marblesSampled": 100,
            "probRed": 0.5,
            "lambda": 5,
            "drawnRed": 43,
            "reportedRed": 68,
            "inferredRed": 60,
            "playerTrialScore": 17,
            "oppTrialScore": -17,
            "playerTotalScore": 278,
            "oppTotalScore": -525,
            "waitTime": 3059.6400280750177,
            "responseTime": 1643038614587,
            "catchQuestion": "How many <b class=\"r\">red<\/b> marbles did you actually draw (before any changes)? ",
            "catchKey": -1,
            "catchResponse": -1,
            "catchTime": 1643038614589,
            "trialTime": 0
        },
        {
            "exptPart": "trial",
            "trialNumber": 61,
            "roleCurrent": "receiver",
            "marblesSampled": 100,
            "probRed": 0.5,
            "lambda": 5,
            "drawnRed": 32,
            "reportedRed": 38,
            "inferredRed": 44,
            "playerTrialScore": -12,
            "oppTrialScore": 12,
            "playerTotalScore": 266,
            "oppTotalScore": -513,
            "waitTime": 6678.713683185457,
            "responseTime": 1643038635667,
            "catchQuestion": "How many <b class=\"r\">red<\/b> marbles did you actually draw (before any changes)? ",
            "catchKey": -1,
            "catchResponse": -1,
            "catchTime": 1643038614589,
            "trialTime": 0
        },
        {
            "exptPart": "trial",
            "trialNumber": 62,
            "roleCurrent": "sender",
            "marblesSampled": 100,
            "probRed": 0.5,
            "lambda": 5,
            "drawnRed": 55,
            "reportedRed": 81,
            "inferredRed": 79,
            "playerTrialScore": 24,
            "oppTrialScore": -24,
            "playerTotalScore": 290,
            "oppTotalScore": -537,
            "waitTime": 2363.5385223079466,
            "responseTime": 1643038674061,
            "catchQuestion": "How many <b class=\"r\">red<\/b> marbles did you actually draw (before any changes)? ",
            "catchKey": -1,
            "catchResponse": -1,
            "catchTime": 1643038614589,
            "trialTime": 0
        },
        {
            "exptPart": "trial",
            "trialNumber": 63,
            "roleCurrent": "receiver",
            "marblesSampled": 100,
            "probRed": 0.5,
            "lambda": 5,
            "drawnRed": 53,
            "reportedRed": 58,
            "inferredRed": 43,
            "playerTrialScore": -10,
            "oppTrialScore": 0,
            "playerTotalScore": 280,
            "oppTotalScore": -537,
            "waitTime": 6856.160713636535,
            "responseTime": 1643038690097,
            "catchQuestion": "How many <b class=\"r\">red<\/b> marbles did you actually draw (before any changes)? ",
            "catchKey": -1,
            "catchResponse": -1,
            "catchTime": 1643038614589,
            "trialTime": 0
        },
        {
            "exptPart": "trial",
            "trialNumber": 64,
            "roleCurrent": "sender",
            "marblesSampled": 100,
            "probRed": 0.5,
            "lambda": 5,
            "drawnRed": 48,
            "reportedRed": 68,
            "inferredRed": 63,
            "playerTrialScore": 15,
            "oppTrialScore": -15,
            "playerTotalScore": 295,
            "oppTotalScore": -552,
            "waitTime": 2243.714103663105,
            "responseTime": 1643038727757,
            "catchQuestion": "How many <b class=\"r\">red<\/b> marbles did you actually draw (before any changes)? ",
            "catchKey": -1,
            "catchResponse": -1,
            "catchTime": 1643038614589,
            "trialTime": 0
        },
        {
            "exptPart": "trial",
            "trialNumber": 65,
            "roleCurrent": "receiver",
            "marblesSampled": 100,
            "probRed": 0.5,
            "lambda": 5,
            "drawnRed": 27,
            "reportedRed": 33,
            "inferredRed": 37,
            "playerTrialScore": -10,
            "oppTrialScore": 10,
            "playerTotalScore": 285,
            "oppTotalScore": -542,
            "waitTime": 6739.0212375446245,
            "responseTime": 1643038741663,
            "catchQuestion": "How many <b class=\"r\">red<\/b> marbles did you actually draw (before any changes)? ",
            "catchKey": -1,
            "catchResponse": -1,
            "catchTime": 1643038741663,
            "trialTime": 0
        },
        {
            "exptPart": "trial",
            "trialNumber": 66,
            "roleCurrent": "sender",
            "marblesSampled": 100,
            "probRed": 0.5,
            "lambda": 5,
            "drawnRed": 50,
            "reportedRed": 79,
            "inferredRed": 73,
            "playerTrialScore": 23,
            "oppTrialScore": -23,
            "playerTotalScore": 308,
            "oppTotalScore": -565,
            "waitTime": 2699.6534148175588,
            "responseTime": 1643038786964,
            "catchQuestion": "How many <b class=\"r\">red<\/b> marbles did you actually draw (before any changes)? ",
            "catchKey": -1,
            "catchResponse": -1,
            "catchTime": 1643038741663,
            "trialTime": 0
        },
        {
            "exptPart": "trial",
            "trialNumber": 67,
            "roleCurrent": "receiver",
            "marblesSampled": 100,
            "probRed": 0.5,
            "lambda": 5,
            "drawnRed": 49,
            "reportedRed": 55,
            "inferredRed": 41,
            "playerTrialScore": -8,
            "oppTrialScore": 0,
            "playerTotalScore": 300,
            "oppTotalScore": -565,
            "waitTime": 6946.919333960548,
            "responseTime": 1643038803414,
            "catchQuestion": "How many <b class=\"r\">red<\/b> marbles did you actually draw (before any changes)? ",
            "catchKey": -1,
            "catchResponse": -1,
            "catchTime": 1643038741663,
            "trialTime": 0
        },
        {
            "exptPart": "trial",
            "trialNumber": 68,
            "roleCurrent": "sender",
            "marblesSampled": 100,
            "probRed": 0.5,
            "lambda": 5,
            "drawnRed": 51,
            "reportedRed": 78,
            "inferredRed": 76,
            "playerTrialScore": 25,
            "oppTrialScore": -25,
            "playerTotalScore": 325,
            "oppTotalScore": -590,
            "waitTime": 2390.3891704514645,
            "responseTime": 1643038840643,
            "catchQuestion": "How many <b class=\"r\">red<\/b> marbles did you actually draw (before any changes)? ",
            "catchKey": -1,
            "catchResponse": -1,
            "catchTime": 1643038741663,
            "trialTime": 0
        },
        {
            "exptPart": "trial",
            "trialNumber": 69,
            "roleCurrent": "receiver",
            "marblesSampled": 100,
            "probRed": 0.5,
            "lambda": 5,
            "drawnRed": 78,
            "reportedRed": 85,
            "inferredRed": 63,
            "playerTrialScore": -15,
            "oppTrialScore": 0,
            "playerTotalScore": 310,
            "oppTotalScore": -590,
            "waitTime": 5205.032161231444,
            "responseTime": 1643038854299,
            "catchQuestion": "How many <b class=\"r\">red<\/b> marbles did your opponent report drawing? ",
            "catchKey": 85,
            "catchResponse": 85,
            "catchTime": 1643038854300,
            "trialTime": 0
        },
        {
            "exptPart": "trial",
            "trialNumber": 70,
            "roleCurrent": "sender",
            "marblesSampled": 100,
            "probRed": 0.5,
            "lambda": 5,
            "drawnRed": 41,
            "reportedRed": 84,
            "inferredRed": 80,
            "playerTrialScore": 39,
            "oppTrialScore": -39,
            "playerTotalScore": 349,
            "oppTotalScore": -629,
            "waitTime": 2879.4149691224366,
            "responseTime": 1643038909320,
            "catchQuestion": "How many <b class=\"r\">red<\/b> marbles did your opponent report drawing? ",
            "catchKey": -1,
            "catchResponse": -1,
            "catchTime": 1643038909320,
            "trialTime": 0
        },
        {
            "exptPart": "trial",
            "trialNumber": 71,
            "roleCurrent": "receiver",
            "marblesSampled": 100,
            "probRed": 0.5,
            "lambda": 5,
            "drawnRed": 55,
            "reportedRed": 57,
            "inferredRed": 39,
            "playerTrialScore": -16,
            "oppTrialScore": 0,
            "playerTotalScore": 333,
            "oppTotalScore": -629,
            "waitTime": 7223.5206043929975,
            "responseTime": 1643038926790,
            "catchQuestion": "How many <b class=\"r\">red<\/b> marbles did your opponent report drawing? ",
            "catchKey": -1,
            "catchResponse": -1,
            "catchTime": 1643038909320,
            "trialTime": 0
        },
        {
            "exptPart": "trial",
            "trialNumber": 72,
            "roleCurrent": "sender",
            "marblesSampled": 100,
            "probRed": 0.5,
            "lambda": 5,
            "drawnRed": 81,
            "reportedRed": 92,
            "inferredRed": 86,
            "playerTrialScore": 5,
            "oppTrialScore": -5,
            "playerTotalScore": 338,
            "oppTotalScore": -634,
            "waitTime": 2224.0467662682913,
            "responseTime": 1643038950067,
            "catchQuestion": "How many <b class=\"r\">red<\/b> marbles did your opponent report drawing? ",
            "catchKey": -1,
            "catchResponse": -1,
            "catchTime": 1643038909320,
            "trialTime": 0
        },
        {
            "exptPart": "trial",
            "trialNumber": 73,
            "roleCurrent": "receiver",
            "marblesSampled": 100,
            "probRed": 0.5,
            "lambda": 5,
            "drawnRed": 53,
            "reportedRed": 58,
            "inferredRed": 42,
            "playerTrialScore": -11,
            "oppTrialScore": 0,
            "playerTotalScore": 327,
            "oppTotalScore": -634,
            "waitTime": 5851.699149016036,
            "responseTime": 1643038963419,
            "catchQuestion": "How many <b class=\"r\">red<\/b> marbles did your opponent report drawing? ",
            "catchKey": -1,
            "catchResponse": -1,
            "catchTime": 1643038909320,
            "trialTime": 0
        },
        {
            "exptPart": "trial",
            "trialNumber": 74,
            "roleCurrent": "sender",
            "marblesSampled": 100,
            "probRed": 0.5,
            "lambda": 5,
            "drawnRed": 23,
            "reportedRed": 85,
            "inferredRed": 81,
            "playerTrialScore": 58,
            "oppTrialScore": -58,
            "playerTotalScore": 385,
            "oppTotalScore": -692,
            "waitTime": 3067.2257982642045,
            "responseTime": 1643039042653,
            "catchQuestion": "How many <b class=\"r\">red<\/b> marbles did your opponent report drawing? ",
            "catchKey": -1,
            "catchResponse": -1,
            "catchTime": 1643038909320,
            "trialTime": 0
        },
        {
            "exptPart": "trial",
            "trialNumber": 75,
            "roleCurrent": "receiver",
            "marblesSampled": 100,
            "probRed": 0.5,
            "lambda": 5,
            "drawnRed": 65,
            "reportedRed": 75,
            "inferredRed": 61,
            "playerTrialScore": -4,
            "oppTrialScore": 0,
            "playerTotalScore": 381,
            "oppTotalScore": -692,
            "waitTime": 7155.59175064056,
            "responseTime": 1643039056142,
            "catchQuestion": "How many <b class=\"r\">red<\/b> marbles did your opponent report drawing? ",
            "catchKey": -1,
            "catchResponse": -1,
            "catchTime": 1643039056142,
            "trialTime": 0
        },
        {
            "exptPart": "trial",
            "trialNumber": 76,
            "roleCurrent": "sender",
            "marblesSampled": 100,
            "probRed": 0.5,
            "lambda": 5,
            "drawnRed": 42,
            "reportedRed": 81,
            "inferredRed": 75,
            "playerTrialScore": 33,
            "oppTrialScore": -33,
            "playerTotalScore": 414,
            "oppTotalScore": -725,
            "waitTime": 2579.129511703362,
            "responseTime": 1643039106443,
            "catchQuestion": "How many <b class=\"r\">red<\/b> marbles did your opponent report drawing? ",
            "catchKey": -1,
            "catchResponse": -1,
            "catchTime": 1643039056142,
            "trialTime": 0
        },
        {
            "exptPart": "trial",
            "trialNumber": 77,
            "roleCurrent": "receiver",
            "marblesSampled": 100,
            "probRed": 0.5,
            "lambda": 5,
            "drawnRed": 25,
            "reportedRed": 31,
            "inferredRed": 35,
            "playerTrialScore": -10,
            "oppTrialScore": 10,
            "playerTotalScore": 404,
            "oppTotalScore": -715,
            "waitTime": 5275.663063059217,
            "responseTime": 1643039118887,
            "catchQuestion": "How many <b class=\"r\">red<\/b> marbles did your opponent report drawing? ",
            "catchKey": -1,
            "catchResponse": -1,
            "catchTime": 1643039056142,
            "trialTime": 0
        },
        {
            "exptPart": "trial",
            "trialNumber": 78,
            "roleCurrent": "sender",
            "marblesSampled": 100,
            "probRed": 0.5,
            "lambda": 5,
            "drawnRed": 18,
            "reportedRed": 75,
            "inferredRed": 69,
            "playerTrialScore": 51,
            "oppTrialScore": -51,
            "playerTotalScore": 455,
            "oppTotalScore": -766,
            "waitTime": 3027.8220678365888,
            "responseTime": 1643039189009,
            "catchQuestion": "How many <b class=\"r\">red<\/b> marbles did your opponent report drawing? ",
            "catchKey": -1,
            "catchResponse": -1,
            "catchTime": 1643039056142,
            "trialTime": 0
        },
        {
            "exptPart": "trial",
            "trialNumber": 79,
            "roleCurrent": "receiver",
            "marblesSampled": 100,
            "probRed": 0.5,
            "lambda": 5,
            "drawnRed": 38,
            "reportedRed": 39,
            "inferredRed": 30,
            "playerTrialScore": -8,
            "oppTrialScore": 0,
            "playerTotalScore": 447,
            "oppTotalScore": -766,
            "waitTime": 6712.02120769346,
            "responseTime": 1643039207973,
            "catchQuestion": "How many <b class=\"r\">red<\/b> marbles did your opponent report drawing? ",
            "catchKey": -1,
            "catchResponse": -1,
            "catchTime": 1643039056142,
            "trialTime": 0
        },
        {
            "exptPart": "trial",
            "trialNumber": 80,
            "roleCurrent": "sender",
            "marblesSampled": 100,
            "probRed": 0.5,
            "lambda": 5,
            "drawnRed": 51,
            "reportedRed": 81,
            "inferredRed": 77,
            "playerTrialScore": 26,
            "oppTrialScore": -26,
            "playerTotalScore": 473,
            "oppTotalScore": -792,
            "waitTime": 3223.547723254558,
            "responseTime": 1643039254193,
            "catchQuestion": "How many <b class=\"r\">red<\/b> marbles did your opponent report drawing? ",
            "catchKey": -1,
            "catchResponse": -1,
            "catchTime": 1643039254195,
            "trialTime": 0
        },
        {
            "exptPart": "trial",
            "trialNumber": 81,
            "roleCurrent": "receiver",
            "marblesSampled": 100,
            "probRed": 0.5,
            "lambda": 5,
            "drawnRed": 22,
            "reportedRed": 25,
            "inferredRed": 31,
            "playerTrialScore": -9,
            "oppTrialScore": 9,
            "playerTotalScore": 464,
            "oppTotalScore": -783,
            "waitTime": 6512.1308519534305,
            "responseTime": 1643039268872,
            "catchQuestion": "How many <b class=\"r\">red<\/b> marbles did your opponent report drawing? ",
            "catchKey": -1,
            "catchResponse": -1,
            "catchTime": 1643039254195,
            "trialTime": 0
        },
        {
            "exptPart": "trial",
            "trialNumber": 82,
            "roleCurrent": "sender",
            "marblesSampled": 100,
            "probRed": 0.5,
            "lambda": 5,
            "drawnRed": 43,
            "reportedRed": 78,
            "inferredRed": 71,
            "playerTrialScore": 28,
            "oppTrialScore": -28,
            "playerTotalScore": 492,
            "oppTotalScore": -811,
            "waitTime": 2742.262702926828,
            "responseTime": 1643039320563,
            "catchQuestion": "How many <b class=\"r\">red<\/b> marbles did your opponent report drawing? ",
            "catchKey": -1,
            "catchResponse": -1,
            "catchTime": 1643039254195,
            "trialTime": 0
        },
        {
            "exptPart": "trial",
            "trialNumber": 83,
            "roleCurrent": "receiver",
            "marblesSampled": 100,
            "probRed": 0.5,
            "lambda": 5,
            "drawnRed": 44,
            "reportedRed": 52,
            "inferredRed": 43,
            "playerTrialScore": -1,
            "oppTrialScore": 0,
            "playerTotalScore": 491,
            "oppTotalScore": -811,
            "waitTime": 6642.366167591435,
            "responseTime": 1643039335085,
            "catchQuestion": "How many <b class=\"r\">red<\/b> marbles did your opponent report drawing? ",
            "catchKey": -1,
            "catchResponse": -1,
            "catchTime": 1643039254195,
            "trialTime": 0
        },
        {
            "exptPart": "trial",
            "trialNumber": 84,
            "roleCurrent": "sender",
            "marblesSampled": 100,
            "probRed": 0.5,
            "lambda": 5,
            "drawnRed": 62,
            "reportedRed": 84,
            "inferredRed": 76,
            "playerTrialScore": 14,
            "oppTrialScore": -14,
            "playerTotalScore": 505,
            "oppTotalScore": -825,
            "waitTime": 2088.6999479701935,
            "responseTime": 1643039370590,
            "catchQuestion": "How many <b class=\"r\">red<\/b> marbles did your opponent report drawing? ",
            "catchKey": -1,
            "catchResponse": -1,
            "catchTime": 1643039254195,
            "trialTime": 0
        },
        {
            "exptPart": "trial",
            "trialNumber": 85,
            "roleCurrent": "receiver",
            "marblesSampled": 100,
            "probRed": 0.5,
            "lambda": 5,
            "drawnRed": 31,
            "reportedRed": 38,
            "inferredRed": 34,
            "playerTrialScore": -3,
            "oppTrialScore": 3,
            "playerTotalScore": 502,
            "oppTotalScore": -822,
            "waitTime": 5833.935284067198,
            "responseTime": 1643039385553,
            "catchQuestion": "How many <b class=\"r\">red<\/b> marbles did your opponent report drawing? ",
            "catchKey": 38,
            "catchResponse": 38,
            "catchTime": 1643039385554,
            "trialTime": 0
        },
        {
            "exptPart": "trial",
            "trialNumber": 86,
            "roleCurrent": "sender",
            "marblesSampled": 100,
            "probRed": 0.5,
            "lambda": 5,
            "drawnRed": 31,
            "reportedRed": 92,
            "inferredRed": 89,
            "playerTrialScore": 58,
            "oppTrialScore": -58,
            "playerTotalScore": 560,
            "oppTotalScore": -880,
            "waitTime": 2090.022893330369,
            "responseTime": 1643039464508,
            "catchQuestion": "How many <b class=\"r\">red<\/b> marbles did your opponent report drawing? ",
            "catchKey": -1,
            "catchResponse": -1,
            "catchTime": 1643039385554,
            "trialTime": 0
        },
        {
            "exptPart": "trial",
            "trialNumber": 87,
            "roleCurrent": "receiver",
            "marblesSampled": 100,
            "probRed": 0.5,
            "lambda": 5,
            "drawnRed": 67,
            "reportedRed": 74,
            "inferredRed": 62,
            "playerTrialScore": -5,
            "oppTrialScore": 0,
            "playerTotalScore": 555,
            "oppTotalScore": -880,
            "waitTime": 5136.385855846656,
            "responseTime": 1643039474761,
            "catchQuestion": "How many <b class=\"r\">red<\/b> marbles did your opponent report drawing? ",
            "catchKey": -1,
            "catchResponse": -1,
            "catchTime": 1643039385554,
            "trialTime": 0
        },
        {
            "exptPart": "trial",
            "trialNumber": 88,
            "roleCurrent": "sender",
            "marblesSampled": 100,
            "probRed": 0.5,
            "lambda": 5,
            "drawnRed": 34,
            "reportedRed": 80,
            "inferredRed": 76,
            "playerTrialScore": 42,
            "oppTrialScore": -42,
            "playerTotalScore": 597,
            "oppTotalScore": -922,
            "waitTime": 2874.027913498538,
            "responseTime": 1643039533528,
            "catchQuestion": "How many <b class=\"r\">red<\/b> marbles did your opponent report drawing? ",
            "catchKey": -1,
            "catchResponse": -1,
            "catchTime": 1643039385554,
            "trialTime": 0
        },
        {
            "exptPart": "trial",
            "trialNumber": 89,
            "roleCurrent": "receiver",
            "marblesSampled": 100,
            "probRed": 0.5,
            "lambda": 5,
            "drawnRed": 46,
            "reportedRed": 50,
            "inferredRed": 39,
            "playerTrialScore": -7,
            "oppTrialScore": 0,
            "playerTotalScore": 590,
            "oppTotalScore": -922,
            "waitTime": 5741.965848597468,
            "responseTime": 1643039549234,
            "catchQuestion": "How many <b class=\"r\">red<\/b> marbles did your opponent report drawing? ",
            "catchKey": -1,
            "catchResponse": -1,
            "catchTime": 1643039385554,
            "trialTime": 0
        },
        {
            "exptPart": "trial",
            "trialNumber": 90,
            "roleCurrent": "sender",
            "marblesSampled": 100,
            "probRed": 0.5,
            "lambda": 5,
            "drawnRed": 23,
            "reportedRed": 76,
            "inferredRed": 68,
            "playerTrialScore": 45,
            "oppTrialScore": -45,
            "playerTotalScore": 635,
            "oppTotalScore": -967,
            "waitTime": 2705.2609632525555,
            "responseTime": 1643039619898,
            "catchQuestion": "How many <b class=\"r\">red<\/b> marbles did your opponent report drawing? ",
            "catchKey": -1,
            "catchResponse": -1,
            "catchTime": 1643039619899,
            "trialTime": 0
        },
        {
            "exptPart": "trial",
            "trialNumber": 91,
            "roleCurrent": "receiver",
            "marblesSampled": 100,
            "probRed": 0.5,
            "lambda": 5,
            "drawnRed": 36,
            "reportedRed": 41,
            "inferredRed": 37,
            "playerTrialScore": -1,
            "oppTrialScore": 1,
            "playerTotalScore": 634,
            "oppTotalScore": -966,
            "waitTime": 7302.838309459903,
            "responseTime": 1643039636223,
            "catchQuestion": "How many <b class=\"r\">red<\/b> marbles did your opponent report drawing? ",
            "catchKey": -1,
            "catchResponse": -1,
            "catchTime": 1643039619899,
            "trialTime": 0
        },
        {
            "exptPart": "trial",
            "trialNumber": 92,
            "roleCurrent": "sender",
            "marblesSampled": 100,
            "probRed": 0.5,
            "lambda": 5,
            "drawnRed": 73,
            "reportedRed": 96,
            "inferredRed": 93,
            "playerTrialScore": 20,
            "oppTrialScore": -20,
            "playerTotalScore": 654,
            "oppTotalScore": -986,
            "waitTime": 2229.493158772255,
            "responseTime": 1643039671999,
            "catchQuestion": "How many <b class=\"r\">red<\/b> marbles did your opponent report drawing? ",
            "catchKey": -1,
            "catchResponse": -1,
            "catchTime": 1643039619899,
            "trialTime": 0
        },
        {
            "exptPart": "trial",
            "trialNumber": 93,
            "roleCurrent": "receiver",
            "marblesSampled": 100,
            "probRed": 0.5,
            "lambda": 5,
            "drawnRed": 9,
            "reportedRed": 16,
            "inferredRed": 23,
            "playerTrialScore": -14,
            "oppTrialScore": 14,
            "playerTotalScore": 640,
            "oppTotalScore": -972,
            "waitTime": 5211.870706641097,
            "responseTime": 1643039686561,
            "catchQuestion": "How many <b class=\"r\">red<\/b> marbles did your opponent report drawing? ",
            "catchKey": -1,
            "catchResponse": -1,
            "catchTime": 1643039619899,
            "trialTime": 0
        },
        {
            "exptPart": "trial",
            "trialNumber": 94,
            "roleCurrent": "sender",
            "marblesSampled": 100,
            "probRed": 0.5,
            "lambda": 5,
            "drawnRed": 31,
            "reportedRed": 76,
            "inferredRed": 71,
            "playerTrialScore": 40,
            "oppTrialScore": -40,
            "playerTotalScore": 680,
            "oppTotalScore": -1012,
            "waitTime": 2574.9807995183237,
            "responseTime": 1643039738655,
            "catchQuestion": "How many <b class=\"r\">red<\/b> marbles did your opponent report drawing? ",
            "catchKey": -1,
            "catchResponse": -1,
            "catchTime": 1643039619899,
            "trialTime": 0
        },
        {
            "exptPart": "trial",
            "trialNumber": 95,
            "roleCurrent": "receiver",
            "marblesSampled": 100,
            "probRed": 0.5,
            "lambda": 5,
            "drawnRed": 56,
            "reportedRed": 65,
            "inferredRed": 53,
            "playerTrialScore": -3,
            "oppTrialScore": 0,
            "playerTotalScore": 677,
            "oppTotalScore": -1012,
            "waitTime": 5498.855275562033,
            "responseTime": 1643039750932,
            "catchQuestion": "How many <b class=\"r\">red<\/b> marbles did your opponent report drawing? ",
            "catchKey": -1,
            "catchResponse": -1,
            "catchTime": 1643039750932,
            "trialTime": 0
        },
        {
            "exptPart": "trial",
            "trialNumber": 96,
            "roleCurrent": "sender",
            "marblesSampled": 100,
            "probRed": 0.5,
            "lambda": 5,
            "drawnRed": 37,
            "reportedRed": 86,
            "inferredRed": 81,
            "playerTrialScore": 44,
            "oppTrialScore": -44,
            "playerTotalScore": 721,
            "oppTotalScore": -1056,
            "waitTime": 2214.4784760958096,
            "responseTime": 1643039807187,
            "catchQuestion": "How many <b class=\"r\">red<\/b> marbles did your opponent report drawing? ",
            "catchKey": -1,
            "catchResponse": -1,
            "catchTime": 1643039750932,
            "trialTime": 0
        },
        {
            "exptPart": "trial",
            "trialNumber": 97,
            "roleCurrent": "receiver",
            "marblesSampled": 100,
            "probRed": 0.5,
            "lambda": 5,
            "drawnRed": 55,
            "reportedRed": 59,
            "inferredRed": 44,
            "playerTrialScore": -11,
            "oppTrialScore": 0,
            "playerTotalScore": 710,
            "oppTotalScore": -1056,
            "waitTime": 5373.06356871491,
            "responseTime": 1643039817868,
            "catchQuestion": "How many <b class=\"r\">red<\/b> marbles did your opponent report drawing? ",
            "catchKey": -1,
            "catchResponse": -1,
            "catchTime": 1643039750932,
            "trialTime": 0
        },
        {
            "exptPart": "trial",
            "trialNumber": 98,
            "roleCurrent": "sender",
            "marblesSampled": 100,
            "probRed": 0.5,
            "lambda": 5,
            "drawnRed": 54,
            "reportedRed": 86,
            "inferredRed": 81,
            "playerTrialScore": 27,
            "oppTrialScore": -27,
            "playerTotalScore": 737,
            "oppTotalScore": -1083,
            "waitTime": 2200.568963067043,
            "responseTime": 1643039858957,
            "catchQuestion": "How many <b class=\"r\">red<\/b> marbles did your opponent report drawing? ",
            "catchKey": -1,
            "catchResponse": -1,
            "catchTime": 1643039750932,
            "trialTime": 0
        },
        {
            "exptPart": "trial",
            "trialNumber": 99,
            "roleCurrent": "receiver",
            "marblesSampled": 100,
            "probRed": 0.5,
            "lambda": 5,
            "drawnRed": 52,
            "reportedRed": 56,
            "inferredRed": 48,
            "playerTrialScore": -4,
            "oppTrialScore": 0,
            "playerTotalScore": 733,
            "oppTotalScore": -1083,
            "waitTime": 5287.931208023847,
            "responseTime": 1643039871469,
            "catchQuestion": "How many <b class=\"r\">red<\/b> marbles did your opponent report drawing? ",
            "catchKey": -1,
            "catchResponse": -1,
            "catchTime": 1643039750932,
            "trialTime": 0
        },
        {
            "exptPart": "trial",
            "trialNumber": 100,
            "roleCurrent": "sender",
            "marblesSampled": 100,
            "probRed": 0.5,
            "lambda": 5,
            "drawnRed": 47,
            "reportedRed": 84,
            "inferredRed": 81,
            "playerTrialScore": 34,
            "oppTrialScore": -34,
            "playerTotalScore": 767,
            "oppTotalScore": -1117,
            "waitTime": 2206.9325267463146,
            "responseTime": 1643039918991,
            "catchQuestion": "How many <b class=\"r\">red<\/b> marbles did you actually draw (before any changes)? ",
            "catchKey": 47,
            "catchResponse": 47,
            "catchTime": 1643039918991,
            "trialTime": 0
        }
    ]
}