{
    "client": {
        "type": "sona",
        "experiment_id": 2228,
        "credit_token": "b315147ae43241ea9c65086cb510cfb7",
        "survey_code": "37017",
        "sid": "sona-37017",
        "window": {
            "width": 1504,
            "height": 860
        },
        "screen": {
            "width": 1504,
            "height": 1003
        },
        "userAgent": "Mozilla\/5.0 (Windows NT 10.0; Win64; x64) AppleWebKit\/537.36 (KHTML, like Gecko) Chrome\/97.0.4692.71 Safari\/537.36",
        "score": 0,
        "bonus": 0
    },
    "expt": {
        "saveURL": "submit.simple.php",
        "trials": 100,
        "practiceTrials": 2,
        "marblesSampled": 100,
        "probRed": 0.5,
        "lambdaAI": 5,
        "roleFirst": "receiver",
        "roles": [
            "sender",
            "receiver"
        ],
        "cost": "linear",
        "goal": "under",
        "catchTrials": [
            1,
            36,
            41,
            3,
            70,
            61,
            34,
            30,
            54,
            40
        ],
        "scoreTotal": {
            "player": -247,
            "opp": -39
        },
        "sona": {
            "experiment_id": 2228,
            "credit_token": "b315147ae43241ea9c65086cb510cfb7"
        },
        "pilot": false,
        "debug": false
    },
    "trials": [
        {
            "exptPart": "practice",
            "trialNumber": 1,
            "roleCurrent": "sender",
            "marblesSampled": 100,
            "probRed": 0.5,
            "lambda": 5,
            "drawnRed": 10,
            "reportedRed": 16,
            "inferredRed": 22,
            "playerTrialScore": 0,
            "oppTrialScore": -12,
            "playerTotalScore": 0,
            "oppTotalScore": -12,
            "waitTime": 2804.6904258680365,
            "responseTime": 1642990524247,
            "catchQuestion": "How many <b class=\"r\">red<\/b> marbles did you actually draw (before any changes)? ",
            "catchKey": 10,
            "catchResponse": 10,
            "catchTime": 1642990524248,
            "trialTime": 0
        },
        {
            "exptPart": "practice",
            "trialNumber": 2,
            "roleCurrent": "receiver",
            "marblesSampled": 100,
            "probRed": 0.5,
            "lambda": 5,
            "drawnRed": 46,
            "reportedRed": 40,
            "inferredRed": 40,
            "playerTrialScore": -6,
            "oppTrialScore": 6,
            "playerTotalScore": -6,
            "oppTotalScore": -6,
            "waitTime": 6038.7105383494945,
            "responseTime": 1642990587215,
            "catchQuestion": "How many <b class=\"r\">red<\/b> marbles did your opponent report drawing? ",
            "catchKey": 40,
            "catchResponse": 40,
            "catchTime": 1642990587216,
            "trialTime": 0
        },
        {
            "exptPart": "trial",
            "trialNumber": 1,
            "roleCurrent": "receiver",
            "marblesSampled": 100,
            "probRed": 0.5,
            "lambda": 5,
            "drawnRed": 75,
            "reportedRed": 73,
            "inferredRed": 68,
            "playerTrialScore": -7,
            "oppTrialScore": 7,
            "playerTotalScore": -7,
            "oppTotalScore": 7,
            "waitTime": 5545.384377104085,
            "responseTime": 1642990616392,
            "catchQuestion": "How many <b class=\"r\">red<\/b> marbles did your opponent report drawing? ",
            "catchKey": -1,
            "catchResponse": -1,
            "catchTime": 1642990587216,
            "trialTime": 0
        },
        {
            "exptPart": "trial",
            "trialNumber": 2,
            "roleCurrent": "sender",
            "marblesSampled": 100,
            "probRed": 0.5,
            "lambda": 5,
            "drawnRed": 82,
            "reportedRed": 78,
            "inferredRed": 81,
            "playerTrialScore": 1,
            "oppTrialScore": -1,
            "playerTotalScore": -6,
            "oppTotalScore": 6,
            "waitTime": 2808.145380441113,
            "responseTime": 1642990654734,
            "catchQuestion": "How many <b class=\"r\">red<\/b> marbles did you actually draw (before any changes)? ",
            "catchKey": 82,
            "catchResponse": 82,
            "catchTime": 1642990654734,
            "trialTime": 0
        },
        {
            "exptPart": "trial",
            "trialNumber": 3,
            "roleCurrent": "receiver",
            "marblesSampled": 100,
            "probRed": 0.5,
            "lambda": 5,
            "drawnRed": 39,
            "reportedRed": 36,
            "inferredRed": 42,
            "playerTrialScore": -3,
            "oppTrialScore": 0,
            "playerTotalScore": -9,
            "oppTotalScore": 6,
            "waitTime": 6660.45158875235,
            "responseTime": 1642990679287,
            "catchQuestion": "How many <b class=\"r\">red<\/b> marbles did you actually draw (before any changes)? ",
            "catchKey": -1,
            "catchResponse": -1,
            "catchTime": 1642990654734,
            "trialTime": 0
        },
        {
            "exptPart": "trial",
            "trialNumber": 4,
            "roleCurrent": "sender",
            "marblesSampled": 100,
            "probRed": 0.5,
            "lambda": 5,
            "drawnRed": 75,
            "reportedRed": 71,
            "inferredRed": 74,
            "playerTrialScore": 1,
            "oppTrialScore": -1,
            "playerTotalScore": -8,
            "oppTotalScore": 5,
            "waitTime": 2326.1309136875207,
            "responseTime": 1642990710482,
            "catchQuestion": "How many <b class=\"r\">red<\/b> marbles did you actually draw (before any changes)? ",
            "catchKey": 75,
            "catchResponse": 75,
            "catchTime": 1642990710482,
            "trialTime": 0
        },
        {
            "exptPart": "trial",
            "trialNumber": 5,
            "roleCurrent": "receiver",
            "marblesSampled": 100,
            "probRed": 0.5,
            "lambda": 5,
            "drawnRed": 64,
            "reportedRed": 58,
            "inferredRed": 32,
            "playerTrialScore": -32,
            "oppTrialScore": 32,
            "playerTotalScore": -40,
            "oppTotalScore": 37,
            "waitTime": 5175.123859117992,
            "responseTime": 1642990746452,
            "catchQuestion": "How many <b class=\"r\">red<\/b> marbles did you actually draw (before any changes)? ",
            "catchKey": -1,
            "catchResponse": -1,
            "catchTime": 1642990746453,
            "trialTime": 0
        },
        {
            "exptPart": "trial",
            "trialNumber": 6,
            "roleCurrent": "sender",
            "marblesSampled": 100,
            "probRed": 0.5,
            "lambda": 5,
            "drawnRed": 48,
            "reportedRed": 52,
            "inferredRed": 55,
            "playerTrialScore": 0,
            "oppTrialScore": -7,
            "playerTotalScore": -40,
            "oppTotalScore": 30,
            "waitTime": 2999.5703195319315,
            "responseTime": 1642990790292,
            "catchQuestion": "How many <b class=\"r\">red<\/b> marbles did you actually draw (before any changes)? ",
            "catchKey": -1,
            "catchResponse": -1,
            "catchTime": 1642990746453,
            "trialTime": 0
        },
        {
            "exptPart": "trial",
            "trialNumber": 7,
            "roleCurrent": "receiver",
            "marblesSampled": 100,
            "probRed": 0.5,
            "lambda": 5,
            "drawnRed": 44,
            "reportedRed": 39,
            "inferredRed": 32,
            "playerTrialScore": -12,
            "oppTrialScore": 12,
            "playerTotalScore": -52,
            "oppTotalScore": 42,
            "waitTime": 7339.694728966127,
            "responseTime": 1642990810238,
            "catchQuestion": "How many <b class=\"r\">red<\/b> marbles did you actually draw (before any changes)? ",
            "catchKey": -1,
            "catchResponse": -1,
            "catchTime": 1642990746453,
            "trialTime": 0
        },
        {
            "exptPart": "trial",
            "trialNumber": 8,
            "roleCurrent": "sender",
            "marblesSampled": 100,
            "probRed": 0.5,
            "lambda": 5,
            "drawnRed": 94,
            "reportedRed": 87,
            "inferredRed": 92,
            "playerTrialScore": 2,
            "oppTrialScore": -2,
            "playerTotalScore": -50,
            "oppTotalScore": 40,
            "waitTime": 3018.462063257015,
            "responseTime": 1642990851899,
            "catchQuestion": "How many <b class=\"r\">red<\/b> marbles did you actually draw (before any changes)? ",
            "catchKey": -1,
            "catchResponse": -1,
            "catchTime": 1642990746453,
            "trialTime": 0
        },
        {
            "exptPart": "trial",
            "trialNumber": 9,
            "roleCurrent": "receiver",
            "marblesSampled": 100,
            "probRed": 0.5,
            "lambda": 5,
            "drawnRed": 21,
            "reportedRed": 17,
            "inferredRed": 15,
            "playerTrialScore": -6,
            "oppTrialScore": 6,
            "playerTotalScore": -56,
            "oppTotalScore": 46,
            "waitTime": 6439.70702507653,
            "responseTime": 1642990870197,
            "catchQuestion": "How many <b class=\"r\">red<\/b> marbles did you actually draw (before any changes)? ",
            "catchKey": -1,
            "catchResponse": -1,
            "catchTime": 1642990746453,
            "trialTime": 0
        },
        {
            "exptPart": "trial",
            "trialNumber": 10,
            "roleCurrent": "sender",
            "marblesSampled": 100,
            "probRed": 0.5,
            "lambda": 5,
            "drawnRed": 57,
            "reportedRed": 55,
            "inferredRed": 61,
            "playerTrialScore": 0,
            "oppTrialScore": -4,
            "playerTotalScore": -56,
            "oppTotalScore": 42,
            "waitTime": 2675.736658447183,
            "responseTime": 1642990885010,
            "catchQuestion": "How many <b class=\"r\">red<\/b> marbles did you actually draw (before any changes)? ",
            "catchKey": -1,
            "catchResponse": -1,
            "catchTime": 1642990885010,
            "trialTime": 0
        },
        {
            "exptPart": "trial",
            "trialNumber": 11,
            "roleCurrent": "receiver",
            "marblesSampled": 100,
            "probRed": 0.5,
            "lambda": 5,
            "drawnRed": 54,
            "reportedRed": 50,
            "inferredRed": 46,
            "playerTrialScore": -8,
            "oppTrialScore": 8,
            "playerTotalScore": -64,
            "oppTotalScore": 50,
            "waitTime": 6699.587645076809,
            "responseTime": 1642990907248,
            "catchQuestion": "How many <b class=\"r\">red<\/b> marbles did you actually draw (before any changes)? ",
            "catchKey": -1,
            "catchResponse": -1,
            "catchTime": 1642990885010,
            "trialTime": 0
        },
        {
            "exptPart": "trial",
            "trialNumber": 12,
            "roleCurrent": "sender",
            "marblesSampled": 100,
            "probRed": 0.5,
            "lambda": 5,
            "drawnRed": 67,
            "reportedRed": 67,
            "inferredRed": 72,
            "playerTrialScore": 0,
            "oppTrialScore": -5,
            "playerTotalScore": -64,
            "oppTotalScore": 45,
            "waitTime": 2927.697776162869,
            "responseTime": 1642990919109,
            "catchQuestion": "How many <b class=\"r\">red<\/b> marbles did you actually draw (before any changes)? ",
            "catchKey": -1,
            "catchResponse": -1,
            "catchTime": 1642990885010,
            "trialTime": 0
        },
        {
            "exptPart": "trial",
            "trialNumber": 13,
            "roleCurrent": "receiver",
            "marblesSampled": 100,
            "probRed": 0.5,
            "lambda": 5,
            "drawnRed": 65,
            "reportedRed": 58,
            "inferredRed": 59,
            "playerTrialScore": -6,
            "oppTrialScore": 6,
            "playerTotalScore": -70,
            "oppTotalScore": 51,
            "waitTime": 6050.396288773805,
            "responseTime": 1642990942673,
            "catchQuestion": "How many <b class=\"r\">red<\/b> marbles did you actually draw (before any changes)? ",
            "catchKey": -1,
            "catchResponse": -1,
            "catchTime": 1642990885010,
            "trialTime": 0
        },
        {
            "exptPart": "trial",
            "trialNumber": 14,
            "roleCurrent": "sender",
            "marblesSampled": 100,
            "probRed": 0.5,
            "lambda": 5,
            "drawnRed": 48,
            "reportedRed": 48,
            "inferredRed": 53,
            "playerTrialScore": 0,
            "oppTrialScore": -5,
            "playerTotalScore": -70,
            "oppTotalScore": 46,
            "waitTime": 3012.8798484569543,
            "responseTime": 1642990952357,
            "catchQuestion": "How many <b class=\"r\">red<\/b> marbles did you actually draw (before any changes)? ",
            "catchKey": -1,
            "catchResponse": -1,
            "catchTime": 1642990885010,
            "trialTime": 0
        },
        {
            "exptPart": "trial",
            "trialNumber": 15,
            "roleCurrent": "receiver",
            "marblesSampled": 100,
            "probRed": 0.5,
            "lambda": 5,
            "drawnRed": 41,
            "reportedRed": 34,
            "inferredRed": 32,
            "playerTrialScore": -9,
            "oppTrialScore": 9,
            "playerTotalScore": -79,
            "oppTotalScore": 55,
            "waitTime": 5164.91271153816,
            "responseTime": 1642990970031,
            "catchQuestion": "How many <b class=\"r\">red<\/b> marbles did you actually draw (before any changes)? ",
            "catchKey": -1,
            "catchResponse": -1,
            "catchTime": 1642990970032,
            "trialTime": 0
        },
        {
            "exptPart": "trial",
            "trialNumber": 16,
            "roleCurrent": "sender",
            "marblesSampled": 100,
            "probRed": 0.5,
            "lambda": 5,
            "drawnRed": 36,
            "reportedRed": 44,
            "inferredRed": 48,
            "playerTrialScore": 0,
            "oppTrialScore": -12,
            "playerTotalScore": -79,
            "oppTotalScore": 43,
            "waitTime": 2086.5547743021316,
            "responseTime": 1642991003524,
            "catchQuestion": "How many <b class=\"r\">red<\/b> marbles did you actually draw (before any changes)? ",
            "catchKey": -1,
            "catchResponse": -1,
            "catchTime": 1642990970032,
            "trialTime": 0
        },
        {
            "exptPart": "trial",
            "trialNumber": 17,
            "roleCurrent": "receiver",
            "marblesSampled": 100,
            "probRed": 0.5,
            "lambda": 5,
            "drawnRed": 42,
            "reportedRed": 37,
            "inferredRed": 23,
            "playerTrialScore": -19,
            "oppTrialScore": 19,
            "playerTotalScore": -98,
            "oppTotalScore": 62,
            "waitTime": 6568.798694726525,
            "responseTime": 1642991028083,
            "catchQuestion": "How many <b class=\"r\">red<\/b> marbles did you actually draw (before any changes)? ",
            "catchKey": -1,
            "catchResponse": -1,
            "catchTime": 1642990970032,
            "trialTime": 0
        },
        {
            "exptPart": "trial",
            "trialNumber": 18,
            "roleCurrent": "sender",
            "marblesSampled": 100,
            "probRed": 0.5,
            "lambda": 5,
            "drawnRed": 61,
            "reportedRed": 54,
            "inferredRed": 61,
            "playerTrialScore": 0,
            "oppTrialScore": 0,
            "playerTotalScore": -98,
            "oppTotalScore": 62,
            "waitTime": 2345.3211325819525,
            "responseTime": 1642991055553,
            "catchQuestion": "How many <b class=\"r\">red<\/b> marbles did you actually draw (before any changes)? ",
            "catchKey": -1,
            "catchResponse": -1,
            "catchTime": 1642990970032,
            "trialTime": 0
        },
        {
            "exptPart": "trial",
            "trialNumber": 19,
            "roleCurrent": "receiver",
            "marblesSampled": 100,
            "probRed": 0.5,
            "lambda": 5,
            "drawnRed": 85,
            "reportedRed": 81,
            "inferredRed": 65,
            "playerTrialScore": -20,
            "oppTrialScore": 20,
            "playerTotalScore": -118,
            "oppTotalScore": 82,
            "waitTime": 7094.981625361916,
            "responseTime": 1642991080221,
            "catchQuestion": "How many <b class=\"r\">red<\/b> marbles did you actually draw (before any changes)? ",
            "catchKey": -1,
            "catchResponse": -1,
            "catchTime": 1642990970032,
            "trialTime": 0
        },
        {
            "exptPart": "trial",
            "trialNumber": 20,
            "roleCurrent": "sender",
            "marblesSampled": 100,
            "probRed": 0.5,
            "lambda": 5,
            "drawnRed": 62,
            "reportedRed": 56,
            "inferredRed": 66,
            "playerTrialScore": 0,
            "oppTrialScore": -4,
            "playerTotalScore": -118,
            "oppTotalScore": 78,
            "waitTime": 2372.263670837404,
            "responseTime": 1642991112136,
            "catchQuestion": "How many <b class=\"r\">red<\/b> marbles did you actually draw (before any changes)? ",
            "catchKey": -1,
            "catchResponse": -1,
            "catchTime": 1642991112137,
            "trialTime": 0
        },
        {
            "exptPart": "trial",
            "trialNumber": 21,
            "roleCurrent": "receiver",
            "marblesSampled": 100,
            "probRed": 0.5,
            "lambda": 5,
            "drawnRed": 46,
            "reportedRed": 41,
            "inferredRed": 48,
            "playerTrialScore": -2,
            "oppTrialScore": 0,
            "playerTotalScore": -120,
            "oppTotalScore": 78,
            "waitTime": 7003.916327838071,
            "responseTime": 1642991135940,
            "catchQuestion": "How many <b class=\"r\">red<\/b> marbles did you actually draw (before any changes)? ",
            "catchKey": -1,
            "catchResponse": -1,
            "catchTime": 1642991112137,
            "trialTime": 0
        },
        {
            "exptPart": "trial",
            "trialNumber": 22,
            "roleCurrent": "sender",
            "marblesSampled": 100,
            "probRed": 0.5,
            "lambda": 5,
            "drawnRed": 69,
            "reportedRed": 63,
            "inferredRed": 66,
            "playerTrialScore": 3,
            "oppTrialScore": -3,
            "playerTotalScore": -117,
            "oppTotalScore": 75,
            "waitTime": 2258.7654946219673,
            "responseTime": 1642991155844,
            "catchQuestion": "How many <b class=\"r\">red<\/b> marbles did you actually draw (before any changes)? ",
            "catchKey": -1,
            "catchResponse": -1,
            "catchTime": 1642991112137,
            "trialTime": 0
        },
        {
            "exptPart": "trial",
            "trialNumber": 23,
            "roleCurrent": "receiver",
            "marblesSampled": 100,
            "probRed": 0.5,
            "lambda": 5,
            "drawnRed": 46,
            "reportedRed": 40,
            "inferredRed": 57,
            "playerTrialScore": -11,
            "oppTrialScore": 0,
            "playerTotalScore": -128,
            "oppTotalScore": 75,
            "waitTime": 5597.2642596851365,
            "responseTime": 1642991175749,
            "catchQuestion": "How many <b class=\"r\">red<\/b> marbles did you actually draw (before any changes)? ",
            "catchKey": -1,
            "catchResponse": -1,
            "catchTime": 1642991112137,
            "trialTime": 0
        },
        {
            "exptPart": "trial",
            "trialNumber": 24,
            "roleCurrent": "sender",
            "marblesSampled": 100,
            "probRed": 0.5,
            "lambda": 5,
            "drawnRed": 83,
            "reportedRed": 81,
            "inferredRed": 86,
            "playerTrialScore": 0,
            "oppTrialScore": -3,
            "playerTotalScore": -128,
            "oppTotalScore": 72,
            "waitTime": 2183.9259400001984,
            "responseTime": 1642991187088,
            "catchQuestion": "How many <b class=\"r\">red<\/b> marbles did you actually draw (before any changes)? ",
            "catchKey": -1,
            "catchResponse": -1,
            "catchTime": 1642991112137,
            "trialTime": 0
        },
        {
            "exptPart": "trial",
            "trialNumber": 25,
            "roleCurrent": "receiver",
            "marblesSampled": 100,
            "probRed": 0.5,
            "lambda": 5,
            "drawnRed": 49,
            "reportedRed": 44,
            "inferredRed": 59,
            "playerTrialScore": -10,
            "oppTrialScore": 0,
            "playerTotalScore": -138,
            "oppTotalScore": 72,
            "waitTime": 5301.403978520117,
            "responseTime": 1642991207354,
            "catchQuestion": "How many <b class=\"r\">red<\/b> marbles did you actually draw (before any changes)? ",
            "catchKey": -1,
            "catchResponse": -1,
            "catchTime": 1642991207354,
            "trialTime": 0
        },
        {
            "exptPart": "trial",
            "trialNumber": 26,
            "roleCurrent": "sender",
            "marblesSampled": 100,
            "probRed": 0.5,
            "lambda": 5,
            "drawnRed": 70,
            "reportedRed": 67,
            "inferredRed": 70,
            "playerTrialScore": 0,
            "oppTrialScore": 0,
            "playerTotalScore": -138,
            "oppTotalScore": 72,
            "waitTime": 2333.088760163591,
            "responseTime": 1642991227589,
            "catchQuestion": "How many <b class=\"r\">red<\/b> marbles did you actually draw (before any changes)? ",
            "catchKey": -1,
            "catchResponse": -1,
            "catchTime": 1642991207354,
            "trialTime": 0
        },
        {
            "exptPart": "trial",
            "trialNumber": 27,
            "roleCurrent": "receiver",
            "marblesSampled": 100,
            "probRed": 0.5,
            "lambda": 5,
            "drawnRed": 64,
            "reportedRed": 60,
            "inferredRed": 64,
            "playerTrialScore": 0,
            "oppTrialScore": 0,
            "playerTotalScore": -138,
            "oppTotalScore": 72,
            "waitTime": 5692.772475580827,
            "responseTime": 1642991244355,
            "catchQuestion": "How many <b class=\"r\">red<\/b> marbles did you actually draw (before any changes)? ",
            "catchKey": -1,
            "catchResponse": -1,
            "catchTime": 1642991207354,
            "trialTime": 0
        },
        {
            "exptPart": "trial",
            "trialNumber": 28,
            "roleCurrent": "sender",
            "marblesSampled": 100,
            "probRed": 0.5,
            "lambda": 5,
            "drawnRed": 51,
            "reportedRed": 47,
            "inferredRed": 50,
            "playerTrialScore": 1,
            "oppTrialScore": -1,
            "playerTotalScore": -137,
            "oppTotalScore": 71,
            "waitTime": 2292.0275883453382,
            "responseTime": 1642991263803,
            "catchQuestion": "How many <b class=\"r\">red<\/b> marbles did you actually draw (before any changes)? ",
            "catchKey": -1,
            "catchResponse": -1,
            "catchTime": 1642991207354,
            "trialTime": 0
        },
        {
            "exptPart": "trial",
            "trialNumber": 29,
            "roleCurrent": "receiver",
            "marblesSampled": 100,
            "probRed": 0.5,
            "lambda": 5,
            "drawnRed": 59,
            "reportedRed": 55,
            "inferredRed": 59,
            "playerTrialScore": 0,
            "oppTrialScore": 0,
            "playerTotalScore": -137,
            "oppTotalScore": 71,
            "waitTime": 5822.4792858322535,
            "responseTime": 1642991283105,
            "catchQuestion": "How many <b class=\"r\">red<\/b> marbles did you actually draw (before any changes)? ",
            "catchKey": -1,
            "catchResponse": -1,
            "catchTime": 1642991207354,
            "trialTime": 0
        },
        {
            "exptPart": "trial",
            "trialNumber": 30,
            "roleCurrent": "sender",
            "marblesSampled": 100,
            "probRed": 0.5,
            "lambda": 5,
            "drawnRed": 40,
            "reportedRed": 43,
            "inferredRed": 46,
            "playerTrialScore": 0,
            "oppTrialScore": -6,
            "playerTotalScore": -137,
            "oppTotalScore": 65,
            "waitTime": 2980.996389543694,
            "responseTime": 1642991298525,
            "catchQuestion": "How many <b class=\"r\">red<\/b> marbles did you actually draw (before any changes)? ",
            "catchKey": -1,
            "catchResponse": -1,
            "catchTime": 1642991298525,
            "trialTime": 0
        },
        {
            "exptPart": "trial",
            "trialNumber": 31,
            "roleCurrent": "receiver",
            "marblesSampled": 100,
            "probRed": 0.5,
            "lambda": 5,
            "drawnRed": 31,
            "reportedRed": 25,
            "inferredRed": 32,
            "playerTrialScore": -1,
            "oppTrialScore": 0,
            "playerTotalScore": -138,
            "oppTotalScore": 65,
            "waitTime": 6730.225695291113,
            "responseTime": 1642991321344,
            "catchQuestion": "How many <b class=\"r\">red<\/b> marbles did your opponent report drawing? ",
            "catchKey": 25,
            "catchResponse": 25,
            "catchTime": 1642991321345,
            "trialTime": 0
        },
        {
            "exptPart": "trial",
            "trialNumber": 32,
            "roleCurrent": "sender",
            "marblesSampled": 100,
            "probRed": 0.5,
            "lambda": 5,
            "drawnRed": 29,
            "reportedRed": 31,
            "inferredRed": 36,
            "playerTrialScore": 0,
            "oppTrialScore": -7,
            "playerTotalScore": -138,
            "oppTotalScore": 58,
            "waitTime": 2978.0092213346734,
            "responseTime": 1642991346714,
            "catchQuestion": "How many <b class=\"r\">red<\/b> marbles did your opponent report drawing? ",
            "catchKey": -1,
            "catchResponse": -1,
            "catchTime": 1642991321345,
            "trialTime": 0
        },
        {
            "exptPart": "trial",
            "trialNumber": 33,
            "roleCurrent": "receiver",
            "marblesSampled": 100,
            "probRed": 0.5,
            "lambda": 5,
            "drawnRed": 50,
            "reportedRed": 43,
            "inferredRed": 53,
            "playerTrialScore": -3,
            "oppTrialScore": 0,
            "playerTotalScore": -141,
            "oppTotalScore": 58,
            "waitTime": 5440.07531543871,
            "responseTime": 1642991363010,
            "catchQuestion": "How many <b class=\"r\">red<\/b> marbles did your opponent report drawing? ",
            "catchKey": -1,
            "catchResponse": -1,
            "catchTime": 1642991321345,
            "trialTime": 0
        },
        {
            "exptPart": "trial",
            "trialNumber": 34,
            "roleCurrent": "sender",
            "marblesSampled": 100,
            "probRed": 0.5,
            "lambda": 5,
            "drawnRed": 35,
            "reportedRed": 38,
            "inferredRed": 41,
            "playerTrialScore": 0,
            "oppTrialScore": -6,
            "playerTotalScore": -141,
            "oppTotalScore": 52,
            "waitTime": 3142.8981479171243,
            "responseTime": 1642991378045,
            "catchQuestion": "How many <b class=\"r\">red<\/b> marbles did your opponent report drawing? ",
            "catchKey": -1,
            "catchResponse": -1,
            "catchTime": 1642991321345,
            "trialTime": 0
        },
        {
            "exptPart": "trial",
            "trialNumber": 35,
            "roleCurrent": "receiver",
            "marblesSampled": 100,
            "probRed": 0.5,
            "lambda": 5,
            "drawnRed": 57,
            "reportedRed": 54,
            "inferredRed": 61,
            "playerTrialScore": -4,
            "oppTrialScore": 0,
            "playerTotalScore": -145,
            "oppTotalScore": 52,
            "waitTime": 5866.880136900836,
            "responseTime": 1642991393151,
            "catchQuestion": "How many <b class=\"r\">red<\/b> marbles did your opponent report drawing? ",
            "catchKey": 54,
            "catchResponse": 54,
            "catchTime": 1642991393151,
            "trialTime": 0
        },
        {
            "exptPart": "trial",
            "trialNumber": 36,
            "roleCurrent": "sender",
            "marblesSampled": 100,
            "probRed": 0.5,
            "lambda": 5,
            "drawnRed": 11,
            "reportedRed": 15,
            "inferredRed": 18,
            "playerTrialScore": 0,
            "oppTrialScore": -7,
            "playerTotalScore": -145,
            "oppTotalScore": 45,
            "waitTime": 2618.6273632239217,
            "responseTime": 1642991424056,
            "catchQuestion": "How many <b class=\"r\">red<\/b> marbles did your opponent report drawing? ",
            "catchKey": -1,
            "catchResponse": -1,
            "catchTime": 1642991393151,
            "trialTime": 0
        },
        {
            "exptPart": "trial",
            "trialNumber": 37,
            "roleCurrent": "receiver",
            "marblesSampled": 100,
            "probRed": 0.5,
            "lambda": 5,
            "drawnRed": 34,
            "reportedRed": 32,
            "inferredRed": 38,
            "playerTrialScore": -4,
            "oppTrialScore": 0,
            "playerTotalScore": -149,
            "oppTotalScore": 45,
            "waitTime": 6359.83130452228,
            "responseTime": 1642991442343,
            "catchQuestion": "How many <b class=\"r\">red<\/b> marbles did your opponent report drawing? ",
            "catchKey": 32,
            "catchResponse": 32,
            "catchTime": 1642991442344,
            "trialTime": 0
        },
        {
            "exptPart": "trial",
            "trialNumber": 38,
            "roleCurrent": "sender",
            "marblesSampled": 100,
            "probRed": 0.5,
            "lambda": 5,
            "drawnRed": 33,
            "reportedRed": 37,
            "inferredRed": 42,
            "playerTrialScore": 0,
            "oppTrialScore": -9,
            "playerTotalScore": -149,
            "oppTotalScore": 36,
            "waitTime": 2478.4669322741865,
            "responseTime": 1642991469798,
            "catchQuestion": "How many <b class=\"r\">red<\/b> marbles did your opponent report drawing? ",
            "catchKey": -1,
            "catchResponse": -1,
            "catchTime": 1642991442344,
            "trialTime": 0
        },
        {
            "exptPart": "trial",
            "trialNumber": 39,
            "roleCurrent": "receiver",
            "marblesSampled": 100,
            "probRed": 0.5,
            "lambda": 5,
            "drawnRed": 80,
            "reportedRed": 74,
            "inferredRed": 78,
            "playerTrialScore": -2,
            "oppTrialScore": 2,
            "playerTotalScore": -151,
            "oppTotalScore": 38,
            "waitTime": 5953.754600865142,
            "responseTime": 1642991485343,
            "catchQuestion": "How many <b class=\"r\">red<\/b> marbles did your opponent report drawing? ",
            "catchKey": -1,
            "catchResponse": -1,
            "catchTime": 1642991442344,
            "trialTime": 0
        },
        {
            "exptPart": "trial",
            "trialNumber": 40,
            "roleCurrent": "sender",
            "marblesSampled": 100,
            "probRed": 0.5,
            "lambda": 5,
            "drawnRed": 39,
            "reportedRed": 40,
            "inferredRed": 45,
            "playerTrialScore": 0,
            "oppTrialScore": -6,
            "playerTotalScore": -151,
            "oppTotalScore": 32,
            "waitTime": 2105.320233538302,
            "responseTime": 1642991498916,
            "catchQuestion": "How many <b class=\"r\">red<\/b> marbles did your opponent report drawing? ",
            "catchKey": -1,
            "catchResponse": -1,
            "catchTime": 1642991498916,
            "trialTime": 0
        },
        {
            "exptPart": "trial",
            "trialNumber": 41,
            "roleCurrent": "receiver",
            "marblesSampled": 100,
            "probRed": 0.5,
            "lambda": 5,
            "drawnRed": 60,
            "reportedRed": 54,
            "inferredRed": 58,
            "playerTrialScore": -2,
            "oppTrialScore": 2,
            "playerTotalScore": -153,
            "oppTotalScore": 34,
            "waitTime": 5679.547529126585,
            "responseTime": 1642991525168,
            "catchQuestion": "How many <b class=\"r\">red<\/b> marbles did your opponent report drawing? ",
            "catchKey": 54,
            "catchResponse": 54,
            "catchTime": 1642991525168,
            "trialTime": 0
        },
        {
            "exptPart": "trial",
            "trialNumber": 42,
            "roleCurrent": "sender",
            "marblesSampled": 100,
            "probRed": 0.5,
            "lambda": 5,
            "drawnRed": 78,
            "reportedRed": 75,
            "inferredRed": 83,
            "playerTrialScore": 0,
            "oppTrialScore": -5,
            "playerTotalScore": -153,
            "oppTotalScore": 29,
            "waitTime": 2183.832824192311,
            "responseTime": 1642991545044,
            "catchQuestion": "How many <b class=\"r\">red<\/b> marbles did you actually draw (before any changes)? ",
            "catchKey": 78,
            "catchResponse": 45,
            "catchTime": 1642991545045,
            "trialTime": 0
        },
        {
            "exptPart": "trial",
            "trialNumber": 43,
            "roleCurrent": "receiver",
            "marblesSampled": 100,
            "probRed": 0.5,
            "lambda": 5,
            "drawnRed": 58,
            "reportedRed": 54,
            "inferredRed": 54,
            "playerTrialScore": -4,
            "oppTrialScore": 4,
            "playerTotalScore": -157,
            "oppTotalScore": 33,
            "waitTime": 5962.007127126091,
            "responseTime": 1642991580345,
            "catchQuestion": "How many <b class=\"r\">red<\/b> marbles did you actually draw (before any changes)? ",
            "catchKey": -1,
            "catchResponse": -1,
            "catchTime": 1642991545045,
            "trialTime": 0
        },
        {
            "exptPart": "trial",
            "trialNumber": 44,
            "roleCurrent": "sender",
            "marblesSampled": 100,
            "probRed": 0.5,
            "lambda": 5,
            "drawnRed": 70,
            "reportedRed": 70,
            "inferredRed": 76,
            "playerTrialScore": 0,
            "oppTrialScore": -6,
            "playerTotalScore": -157,
            "oppTotalScore": 27,
            "waitTime": 2268.0976694463907,
            "responseTime": 1642991590675,
            "catchQuestion": "How many <b class=\"r\">red<\/b> marbles did you actually draw (before any changes)? ",
            "catchKey": -1,
            "catchResponse": -1,
            "catchTime": 1642991545045,
            "trialTime": 0
        },
        {
            "exptPart": "trial",
            "trialNumber": 45,
            "roleCurrent": "receiver",
            "marblesSampled": 100,
            "probRed": 0.5,
            "lambda": 5,
            "drawnRed": 72,
            "reportedRed": 68,
            "inferredRed": 77,
            "playerTrialScore": -5,
            "oppTrialScore": 0,
            "playerTotalScore": -162,
            "oppTotalScore": 27,
            "waitTime": 6469.352629083902,
            "responseTime": 1642991607438,
            "catchQuestion": "How many <b class=\"r\">red<\/b> marbles did you actually draw (before any changes)? ",
            "catchKey": -1,
            "catchResponse": -1,
            "catchTime": 1642991607438,
            "trialTime": 0
        },
        {
            "exptPart": "trial",
            "trialNumber": 46,
            "roleCurrent": "sender",
            "marblesSampled": 100,
            "probRed": 0.5,
            "lambda": 5,
            "drawnRed": 33,
            "reportedRed": 36,
            "inferredRed": 38,
            "playerTrialScore": 0,
            "oppTrialScore": -5,
            "playerTotalScore": -162,
            "oppTotalScore": 22,
            "waitTime": 2305.9493033454446,
            "responseTime": 1642991627543,
            "catchQuestion": "How many <b class=\"r\">red<\/b> marbles did you actually draw (before any changes)? ",
            "catchKey": -1,
            "catchResponse": -1,
            "catchTime": 1642991607438,
            "trialTime": 0
        },
        {
            "exptPart": "trial",
            "trialNumber": 47,
            "roleCurrent": "receiver",
            "marblesSampled": 100,
            "probRed": 0.5,
            "lambda": 5,
            "drawnRed": 50,
            "reportedRed": 48,
            "inferredRed": 53,
            "playerTrialScore": -3,
            "oppTrialScore": 0,
            "playerTotalScore": -165,
            "oppTotalScore": 22,
            "waitTime": 6619.806654508629,
            "responseTime": 1642991644842,
            "catchQuestion": "How many <b class=\"r\">red<\/b> marbles did you actually draw (before any changes)? ",
            "catchKey": -1,
            "catchResponse": -1,
            "catchTime": 1642991607438,
            "trialTime": 0
        },
        {
            "exptPart": "trial",
            "trialNumber": 48,
            "roleCurrent": "sender",
            "marblesSampled": 100,
            "probRed": 0.5,
            "lambda": 5,
            "drawnRed": 49,
            "reportedRed": 52,
            "inferredRed": 59,
            "playerTrialScore": 0,
            "oppTrialScore": -10,
            "playerTotalScore": -165,
            "oppTotalScore": 12,
            "waitTime": 2960.3376342482334,
            "responseTime": 1642991660103,
            "catchQuestion": "How many <b class=\"r\">red<\/b> marbles did you actually draw (before any changes)? ",
            "catchKey": -1,
            "catchResponse": -1,
            "catchTime": 1642991607438,
            "trialTime": 0
        },
        {
            "exptPart": "trial",
            "trialNumber": 49,
            "roleCurrent": "receiver",
            "marblesSampled": 100,
            "probRed": 0.5,
            "lambda": 5,
            "drawnRed": 85,
            "reportedRed": 79,
            "inferredRed": 80,
            "playerTrialScore": -5,
            "oppTrialScore": 5,
            "playerTotalScore": -170,
            "oppTotalScore": 17,
            "waitTime": 6237.141051738625,
            "responseTime": 1642991677131,
            "catchQuestion": "How many <b class=\"r\">red<\/b> marbles did you actually draw (before any changes)? ",
            "catchKey": -1,
            "catchResponse": -1,
            "catchTime": 1642991607438,
            "trialTime": 0
        },
        {
            "exptPart": "trial",
            "trialNumber": 50,
            "roleCurrent": "sender",
            "marblesSampled": 100,
            "probRed": 0.5,
            "lambda": 5,
            "drawnRed": 63,
            "reportedRed": 61,
            "inferredRed": 65,
            "playerTrialScore": 0,
            "oppTrialScore": -2,
            "playerTotalScore": -170,
            "oppTotalScore": 15,
            "waitTime": 3227.334759081664,
            "responseTime": 1642991690484,
            "catchQuestion": "How many <b class=\"r\">red<\/b> marbles did you actually draw (before any changes)? ",
            "catchKey": -1,
            "catchResponse": -1,
            "catchTime": 1642991690484,
            "trialTime": 0
        },
        {
            "exptPart": "trial",
            "trialNumber": 51,
            "roleCurrent": "receiver",
            "marblesSampled": 100,
            "probRed": 0.5,
            "lambda": 5,
            "drawnRed": 39,
            "reportedRed": 32,
            "inferredRed": 32,
            "playerTrialScore": -7,
            "oppTrialScore": 7,
            "playerTotalScore": -177,
            "oppTotalScore": 22,
            "waitTime": 5296.633229094191,
            "responseTime": 1642991716894,
            "catchQuestion": "How many <b class=\"r\">red<\/b> marbles did you actually draw (before any changes)? ",
            "catchKey": -1,
            "catchResponse": -1,
            "catchTime": 1642991690484,
            "trialTime": 0
        },
        {
            "exptPart": "trial",
            "trialNumber": 52,
            "roleCurrent": "sender",
            "marblesSampled": 100,
            "probRed": 0.5,
            "lambda": 5,
            "drawnRed": 12,
            "reportedRed": 15,
            "inferredRed": 20,
            "playerTrialScore": 0,
            "oppTrialScore": -8,
            "playerTotalScore": -177,
            "oppTotalScore": 14,
            "waitTime": 2315.1555318451574,
            "responseTime": 1642991730678,
            "catchQuestion": "How many <b class=\"r\">red<\/b> marbles did you actually draw (before any changes)? ",
            "catchKey": -1,
            "catchResponse": -1,
            "catchTime": 1642991690484,
            "trialTime": 0
        },
        {
            "exptPart": "trial",
            "trialNumber": 53,
            "roleCurrent": "receiver",
            "marblesSampled": 100,
            "probRed": 0.5,
            "lambda": 5,
            "drawnRed": 19,
            "reportedRed": 14,
            "inferredRed": 20,
            "playerTrialScore": -1,
            "oppTrialScore": 0,
            "playerTotalScore": -178,
            "oppTotalScore": 14,
            "waitTime": 5287.613925194698,
            "responseTime": 1642991746799,
            "catchQuestion": "How many <b class=\"r\">red<\/b> marbles did you actually draw (before any changes)? ",
            "catchKey": -1,
            "catchResponse": -1,
            "catchTime": 1642991690484,
            "trialTime": 0
        },
        {
            "exptPart": "trial",
            "trialNumber": 54,
            "roleCurrent": "sender",
            "marblesSampled": 100,
            "probRed": 0.5,
            "lambda": 5,
            "drawnRed": 51,
            "reportedRed": 52,
            "inferredRed": 60,
            "playerTrialScore": 0,
            "oppTrialScore": -9,
            "playerTotalScore": -178,
            "oppTotalScore": 5,
            "waitTime": 2439.35537066018,
            "responseTime": 1642991757607,
            "catchQuestion": "How many <b class=\"r\">red<\/b> marbles did you actually draw (before any changes)? ",
            "catchKey": -1,
            "catchResponse": -1,
            "catchTime": 1642991690484,
            "trialTime": 0
        },
        {
            "exptPart": "trial",
            "trialNumber": 55,
            "roleCurrent": "receiver",
            "marblesSampled": 100,
            "probRed": 0.5,
            "lambda": 5,
            "drawnRed": 65,
            "reportedRed": 58,
            "inferredRed": 62,
            "playerTrialScore": -3,
            "oppTrialScore": 3,
            "playerTotalScore": -181,
            "oppTotalScore": 8,
            "waitTime": 6093.662947901685,
            "responseTime": 1642991776026,
            "catchQuestion": "How many <b class=\"r\">red<\/b> marbles did your opponent report drawing? ",
            "catchKey": 58,
            "catchResponse": 58,
            "catchTime": 1642991776026,
            "trialTime": 0
        },
        {
            "exptPart": "trial",
            "trialNumber": 56,
            "roleCurrent": "sender",
            "marblesSampled": 100,
            "probRed": 0.5,
            "lambda": 5,
            "drawnRed": 66,
            "reportedRed": 63,
            "inferredRed": 68,
            "playerTrialScore": 0,
            "oppTrialScore": -2,
            "playerTotalScore": -181,
            "oppTotalScore": 6,
            "waitTime": 2824.500569531211,
            "responseTime": 1642991800885,
            "catchQuestion": "How many <b class=\"r\">red<\/b> marbles did your opponent report drawing? ",
            "catchKey": -1,
            "catchResponse": -1,
            "catchTime": 1642991776026,
            "trialTime": 0
        },
        {
            "exptPart": "trial",
            "trialNumber": 57,
            "roleCurrent": "receiver",
            "marblesSampled": 100,
            "probRed": 0.5,
            "lambda": 5,
            "drawnRed": 29,
            "reportedRed": 23,
            "inferredRed": 23,
            "playerTrialScore": -6,
            "oppTrialScore": 6,
            "playerTotalScore": -187,
            "oppTotalScore": 12,
            "waitTime": 5934.111509914779,
            "responseTime": 1642991817952,
            "catchQuestion": "How many <b class=\"r\">red<\/b> marbles did your opponent report drawing? ",
            "catchKey": -1,
            "catchResponse": -1,
            "catchTime": 1642991776026,
            "trialTime": 0
        },
        {
            "exptPart": "trial",
            "trialNumber": 58,
            "roleCurrent": "sender",
            "marblesSampled": 100,
            "probRed": 0.5,
            "lambda": 5,
            "drawnRed": 37,
            "reportedRed": 39,
            "inferredRed": 43,
            "playerTrialScore": 0,
            "oppTrialScore": -6,
            "playerTotalScore": -187,
            "oppTotalScore": 6,
            "waitTime": 3024.179659650773,
            "responseTime": 1642991832838,
            "catchQuestion": "How many <b class=\"r\">red<\/b> marbles did your opponent report drawing? ",
            "catchKey": -1,
            "catchResponse": -1,
            "catchTime": 1642991776026,
            "trialTime": 0
        },
        {
            "exptPart": "trial",
            "trialNumber": 59,
            "roleCurrent": "receiver",
            "marblesSampled": 100,
            "probRed": 0.5,
            "lambda": 5,
            "drawnRed": 44,
            "reportedRed": 32,
            "inferredRed": 33,
            "playerTrialScore": -11,
            "oppTrialScore": 11,
            "playerTotalScore": -198,
            "oppTotalScore": 17,
            "waitTime": 7167.487140761409,
            "responseTime": 1642991852402,
            "catchQuestion": "How many <b class=\"r\">red<\/b> marbles did your opponent report drawing? ",
            "catchKey": -1,
            "catchResponse": -1,
            "catchTime": 1642991776026,
            "trialTime": 0
        },
        {
            "exptPart": "trial",
            "trialNumber": 60,
            "roleCurrent": "sender",
            "marblesSampled": 100,
            "probRed": 0.5,
            "lambda": 5,
            "drawnRed": 31,
            "reportedRed": 34,
            "inferredRed": 36,
            "playerTrialScore": 0,
            "oppTrialScore": -5,
            "playerTotalScore": -198,
            "oppTotalScore": 12,
            "waitTime": 2540.77319019879,
            "responseTime": 1642991867192,
            "catchQuestion": "How many <b class=\"r\">red<\/b> marbles did your opponent report drawing? ",
            "catchKey": -1,
            "catchResponse": -1,
            "catchTime": 1642991867192,
            "trialTime": 0
        },
        {
            "exptPart": "trial",
            "trialNumber": 61,
            "roleCurrent": "receiver",
            "marblesSampled": 100,
            "probRed": 0.5,
            "lambda": 5,
            "drawnRed": 65,
            "reportedRed": 62,
            "inferredRed": 63,
            "playerTrialScore": -2,
            "oppTrialScore": 2,
            "playerTotalScore": -200,
            "oppTotalScore": 14,
            "waitTime": 7104.484937540021,
            "responseTime": 1642991892108,
            "catchQuestion": "How many <b class=\"r\">red<\/b> marbles did your opponent report drawing? ",
            "catchKey": -1,
            "catchResponse": -1,
            "catchTime": 1642991867192,
            "trialTime": 0
        },
        {
            "exptPart": "trial",
            "trialNumber": 62,
            "roleCurrent": "sender",
            "marblesSampled": 100,
            "probRed": 0.5,
            "lambda": 5,
            "drawnRed": 62,
            "reportedRed": 62,
            "inferredRed": 65,
            "playerTrialScore": 0,
            "oppTrialScore": -3,
            "playerTotalScore": -200,
            "oppTotalScore": 11,
            "waitTime": 2743.7251492526275,
            "responseTime": 1642991901035,
            "catchQuestion": "How many <b class=\"r\">red<\/b> marbles did you actually draw (before any changes)? ",
            "catchKey": 62,
            "catchResponse": 62,
            "catchTime": 1642991901035,
            "trialTime": 0
        },
        {
            "exptPart": "trial",
            "trialNumber": 63,
            "roleCurrent": "receiver",
            "marblesSampled": 100,
            "probRed": 0.5,
            "lambda": 5,
            "drawnRed": 79,
            "reportedRed": 73,
            "inferredRed": 76,
            "playerTrialScore": -3,
            "oppTrialScore": 3,
            "playerTotalScore": -203,
            "oppTotalScore": 14,
            "waitTime": 7375.679803890973,
            "responseTime": 1642991922612,
            "catchQuestion": "How many <b class=\"r\">red<\/b> marbles did you actually draw (before any changes)? ",
            "catchKey": -1,
            "catchResponse": -1,
            "catchTime": 1642991901035,
            "trialTime": 0
        },
        {
            "exptPart": "trial",
            "trialNumber": 64,
            "roleCurrent": "sender",
            "marblesSampled": 100,
            "probRed": 0.5,
            "lambda": 5,
            "drawnRed": 65,
            "reportedRed": 65,
            "inferredRed": 73,
            "playerTrialScore": 0,
            "oppTrialScore": -8,
            "playerTotalScore": -203,
            "oppTotalScore": 6,
            "waitTime": 2346.7879545303667,
            "responseTime": 1642991932303,
            "catchQuestion": "How many <b class=\"r\">red<\/b> marbles did you actually draw (before any changes)? ",
            "catchKey": -1,
            "catchResponse": -1,
            "catchTime": 1642991901035,
            "trialTime": 0
        },
        {
            "exptPart": "trial",
            "trialNumber": 65,
            "roleCurrent": "receiver",
            "marblesSampled": 100,
            "probRed": 0.5,
            "lambda": 5,
            "drawnRed": 38,
            "reportedRed": 32,
            "inferredRed": 38,
            "playerTrialScore": 0,
            "oppTrialScore": 0,
            "playerTotalScore": -203,
            "oppTotalScore": 6,
            "waitTime": 5539.648856949947,
            "responseTime": 1642991947411,
            "catchQuestion": "How many <b class=\"r\">red<\/b> marbles did you actually draw (before any changes)? ",
            "catchKey": -1,
            "catchResponse": -1,
            "catchTime": 1642991947411,
            "trialTime": 0
        },
        {
            "exptPart": "trial",
            "trialNumber": 66,
            "roleCurrent": "sender",
            "marblesSampled": 100,
            "probRed": 0.5,
            "lambda": 5,
            "drawnRed": 39,
            "reportedRed": 39,
            "inferredRed": 44,
            "playerTrialScore": 0,
            "oppTrialScore": -5,
            "playerTotalScore": -203,
            "oppTotalScore": 1,
            "waitTime": 3109.683079408869,
            "responseTime": 1642991959323,
            "catchQuestion": "How many <b class=\"r\">red<\/b> marbles did you actually draw (before any changes)? ",
            "catchKey": -1,
            "catchResponse": -1,
            "catchTime": 1642991947411,
            "trialTime": 0
        },
        {
            "exptPart": "trial",
            "trialNumber": 67,
            "roleCurrent": "receiver",
            "marblesSampled": 100,
            "probRed": 0.5,
            "lambda": 5,
            "drawnRed": 32,
            "reportedRed": 26,
            "inferredRed": 26,
            "playerTrialScore": -6,
            "oppTrialScore": 6,
            "playerTotalScore": -209,
            "oppTotalScore": 7,
            "waitTime": 5310.94433889756,
            "responseTime": 1642991972579,
            "catchQuestion": "How many <b class=\"r\">red<\/b> marbles did you actually draw (before any changes)? ",
            "catchKey": -1,
            "catchResponse": -1,
            "catchTime": 1642991947411,
            "trialTime": 0
        },
        {
            "exptPart": "trial",
            "trialNumber": 68,
            "roleCurrent": "sender",
            "marblesSampled": 100,
            "probRed": 0.5,
            "lambda": 5,
            "drawnRed": 35,
            "reportedRed": 35,
            "inferredRed": 39,
            "playerTrialScore": 0,
            "oppTrialScore": -4,
            "playerTotalScore": -209,
            "oppTotalScore": 3,
            "waitTime": 2897.8537655259797,
            "responseTime": 1642991980671,
            "catchQuestion": "How many <b class=\"r\">red<\/b> marbles did you actually draw (before any changes)? ",
            "catchKey": -1,
            "catchResponse": -1,
            "catchTime": 1642991947411,
            "trialTime": 0
        },
        {
            "exptPart": "trial",
            "trialNumber": 69,
            "roleCurrent": "receiver",
            "marblesSampled": 100,
            "probRed": 0.5,
            "lambda": 5,
            "drawnRed": 29,
            "reportedRed": 27,
            "inferredRed": 32,
            "playerTrialScore": -3,
            "oppTrialScore": 0,
            "playerTotalScore": -212,
            "oppTotalScore": 3,
            "waitTime": 7397.809448034152,
            "responseTime": 1642991996658,
            "catchQuestion": "How many <b class=\"r\">red<\/b> marbles did you actually draw (before any changes)? ",
            "catchKey": -1,
            "catchResponse": -1,
            "catchTime": 1642991947411,
            "trialTime": 0
        },
        {
            "exptPart": "trial",
            "trialNumber": 70,
            "roleCurrent": "sender",
            "marblesSampled": 100,
            "probRed": 0.5,
            "lambda": 5,
            "drawnRed": 49,
            "reportedRed": 49,
            "inferredRed": 57,
            "playerTrialScore": 0,
            "oppTrialScore": -8,
            "playerTotalScore": -212,
            "oppTotalScore": -5,
            "waitTime": 2199.629226744619,
            "responseTime": 1642992005433,
            "catchQuestion": "How many <b class=\"r\">red<\/b> marbles did you actually draw (before any changes)? ",
            "catchKey": -1,
            "catchResponse": -1,
            "catchTime": 1642992005433,
            "trialTime": 0
        },
        {
            "exptPart": "trial",
            "trialNumber": 71,
            "roleCurrent": "receiver",
            "marblesSampled": 100,
            "probRed": 0.5,
            "lambda": 5,
            "drawnRed": 80,
            "reportedRed": 71,
            "inferredRed": 77,
            "playerTrialScore": -3,
            "oppTrialScore": 3,
            "playerTotalScore": -215,
            "oppTotalScore": -2,
            "waitTime": 5148.030638339886,
            "responseTime": 1642992025051,
            "catchQuestion": "How many <b class=\"r\">red<\/b> marbles did your opponent report drawing? ",
            "catchKey": 71,
            "catchResponse": 71,
            "catchTime": 1642992025051,
            "trialTime": 0
        },
        {
            "exptPart": "trial",
            "trialNumber": 72,
            "roleCurrent": "sender",
            "marblesSampled": 100,
            "probRed": 0.5,
            "lambda": 5,
            "drawnRed": 41,
            "reportedRed": 41,
            "inferredRed": 46,
            "playerTrialScore": 0,
            "oppTrialScore": -5,
            "playerTotalScore": -215,
            "oppTotalScore": -7,
            "waitTime": 2286.11143421718,
            "responseTime": 1642992041111,
            "catchQuestion": "How many <b class=\"r\">red<\/b> marbles did your opponent report drawing? ",
            "catchKey": -1,
            "catchResponse": -1,
            "catchTime": 1642992025051,
            "trialTime": 0
        },
        {
            "exptPart": "trial",
            "trialNumber": 73,
            "roleCurrent": "receiver",
            "marblesSampled": 100,
            "probRed": 0.5,
            "lambda": 5,
            "drawnRed": 36,
            "reportedRed": 33,
            "inferredRed": 36,
            "playerTrialScore": 0,
            "oppTrialScore": 0,
            "playerTotalScore": -215,
            "oppTotalScore": -7,
            "waitTime": 5357.735019694008,
            "responseTime": 1642992059826,
            "catchQuestion": "How many <b class=\"r\">red<\/b> marbles did your opponent report drawing? ",
            "catchKey": -1,
            "catchResponse": -1,
            "catchTime": 1642992025051,
            "trialTime": 0
        },
        {
            "exptPart": "trial",
            "trialNumber": 74,
            "roleCurrent": "sender",
            "marblesSampled": 100,
            "probRed": 0.5,
            "lambda": 5,
            "drawnRed": 50,
            "reportedRed": 50,
            "inferredRed": 58,
            "playerTrialScore": 0,
            "oppTrialScore": -8,
            "playerTotalScore": -215,
            "oppTotalScore": -15,
            "waitTime": 2861.208879319557,
            "responseTime": 1642992069331,
            "catchQuestion": "How many <b class=\"r\">red<\/b> marbles did your opponent report drawing? ",
            "catchKey": -1,
            "catchResponse": -1,
            "catchTime": 1642992025051,
            "trialTime": 0
        },
        {
            "exptPart": "trial",
            "trialNumber": 75,
            "roleCurrent": "receiver",
            "marblesSampled": 100,
            "probRed": 0.5,
            "lambda": 5,
            "drawnRed": 29,
            "reportedRed": 22,
            "inferredRed": 24,
            "playerTrialScore": -5,
            "oppTrialScore": 5,
            "playerTotalScore": -220,
            "oppTotalScore": -10,
            "waitTime": 5777.863687616542,
            "responseTime": 1642992086553,
            "catchQuestion": "How many <b class=\"r\">red<\/b> marbles did your opponent report drawing? ",
            "catchKey": -1,
            "catchResponse": -1,
            "catchTime": 1642992086553,
            "trialTime": 0
        },
        {
            "exptPart": "trial",
            "trialNumber": 76,
            "roleCurrent": "sender",
            "marblesSampled": 100,
            "probRed": 0.5,
            "lambda": 5,
            "drawnRed": 58,
            "reportedRed": 54,
            "inferredRed": 63,
            "playerTrialScore": 0,
            "oppTrialScore": -5,
            "playerTotalScore": -220,
            "oppTotalScore": -15,
            "waitTime": 2886.2722931649787,
            "responseTime": 1642992108795,
            "catchQuestion": "How many <b class=\"r\">red<\/b> marbles did your opponent report drawing? ",
            "catchKey": -1,
            "catchResponse": -1,
            "catchTime": 1642992086553,
            "trialTime": 0
        },
        {
            "exptPart": "trial",
            "trialNumber": 77,
            "roleCurrent": "receiver",
            "marblesSampled": 100,
            "probRed": 0.5,
            "lambda": 5,
            "drawnRed": 73,
            "reportedRed": 68,
            "inferredRed": 73,
            "playerTrialScore": 0,
            "oppTrialScore": 0,
            "playerTotalScore": -220,
            "oppTotalScore": -15,
            "waitTime": 5395.790426408523,
            "responseTime": 1642992129511,
            "catchQuestion": "How many <b class=\"r\">red<\/b> marbles did your opponent report drawing? ",
            "catchKey": -1,
            "catchResponse": -1,
            "catchTime": 1642992086553,
            "trialTime": 0
        },
        {
            "exptPart": "trial",
            "trialNumber": 78,
            "roleCurrent": "sender",
            "marblesSampled": 100,
            "probRed": 0.5,
            "lambda": 5,
            "drawnRed": 21,
            "reportedRed": 24,
            "inferredRed": 29,
            "playerTrialScore": 0,
            "oppTrialScore": -8,
            "playerTotalScore": -220,
            "oppTotalScore": -23,
            "waitTime": 2229.3709830845983,
            "responseTime": 1642992148985,
            "catchQuestion": "How many <b class=\"r\">red<\/b> marbles did your opponent report drawing? ",
            "catchKey": -1,
            "catchResponse": -1,
            "catchTime": 1642992086553,
            "trialTime": 0
        },
        {
            "exptPart": "trial",
            "trialNumber": 79,
            "roleCurrent": "receiver",
            "marblesSampled": 100,
            "probRed": 0.5,
            "lambda": 5,
            "drawnRed": 18,
            "reportedRed": 16,
            "inferredRed": 21,
            "playerTrialScore": -3,
            "oppTrialScore": 0,
            "playerTotalScore": -223,
            "oppTotalScore": -23,
            "waitTime": 5317.308897682815,
            "responseTime": 1642992164634,
            "catchQuestion": "How many <b class=\"r\">red<\/b> marbles did your opponent report drawing? ",
            "catchKey": -1,
            "catchResponse": -1,
            "catchTime": 1642992086553,
            "trialTime": 0
        },
        {
            "exptPart": "trial",
            "trialNumber": 80,
            "roleCurrent": "sender",
            "marblesSampled": 100,
            "probRed": 0.5,
            "lambda": 5,
            "drawnRed": 72,
            "reportedRed": 68,
            "inferredRed": 71,
            "playerTrialScore": 1,
            "oppTrialScore": -1,
            "playerTotalScore": -222,
            "oppTotalScore": -24,
            "waitTime": 2327.522385846346,
            "responseTime": 1642992181607,
            "catchQuestion": "How many <b class=\"r\">red<\/b> marbles did your opponent report drawing? ",
            "catchKey": -1,
            "catchResponse": -1,
            "catchTime": 1642992181607,
            "trialTime": 0
        },
        {
            "exptPart": "trial",
            "trialNumber": 81,
            "roleCurrent": "receiver",
            "marblesSampled": 100,
            "probRed": 0.5,
            "lambda": 5,
            "drawnRed": 62,
            "reportedRed": 58,
            "inferredRed": 62,
            "playerTrialScore": 0,
            "oppTrialScore": 0,
            "playerTotalScore": -222,
            "oppTotalScore": -24,
            "waitTime": 6068.476097254632,
            "responseTime": 1642992204845,
            "catchQuestion": "How many <b class=\"r\">red<\/b> marbles did your opponent report drawing? ",
            "catchKey": -1,
            "catchResponse": -1,
            "catchTime": 1642992181607,
            "trialTime": 0
        },
        {
            "exptPart": "trial",
            "trialNumber": 82,
            "roleCurrent": "sender",
            "marblesSampled": 100,
            "probRed": 0.5,
            "lambda": 5,
            "drawnRed": 29,
            "reportedRed": 34,
            "inferredRed": 37,
            "playerTrialScore": 0,
            "oppTrialScore": -8,
            "playerTotalScore": -222,
            "oppTotalScore": -32,
            "waitTime": 2090.8119278654503,
            "responseTime": 1642992218449,
            "catchQuestion": "How many <b class=\"r\">red<\/b> marbles did your opponent report drawing? ",
            "catchKey": -1,
            "catchResponse": -1,
            "catchTime": 1642992181607,
            "trialTime": 0
        },
        {
            "exptPart": "trial",
            "trialNumber": 83,
            "roleCurrent": "receiver",
            "marblesSampled": 100,
            "probRed": 0.5,
            "lambda": 5,
            "drawnRed": 69,
            "reportedRed": 65,
            "inferredRed": 65,
            "playerTrialScore": -4,
            "oppTrialScore": 4,
            "playerTotalScore": -226,
            "oppTotalScore": -28,
            "waitTime": 6398.257373773374,
            "responseTime": 1642992234560,
            "catchQuestion": "How many <b class=\"r\">red<\/b> marbles did your opponent report drawing? ",
            "catchKey": -1,
            "catchResponse": -1,
            "catchTime": 1642992181607,
            "trialTime": 0
        },
        {
            "exptPart": "trial",
            "trialNumber": 84,
            "roleCurrent": "sender",
            "marblesSampled": 100,
            "probRed": 0.5,
            "lambda": 5,
            "drawnRed": 41,
            "reportedRed": 41,
            "inferredRed": 46,
            "playerTrialScore": 0,
            "oppTrialScore": -5,
            "playerTotalScore": -226,
            "oppTotalScore": -33,
            "waitTime": 2576.409616179709,
            "responseTime": 1642992242635,
            "catchQuestion": "How many <b class=\"r\">red<\/b> marbles did your opponent report drawing? ",
            "catchKey": -1,
            "catchResponse": -1,
            "catchTime": 1642992181607,
            "trialTime": 0
        },
        {
            "exptPart": "trial",
            "trialNumber": 85,
            "roleCurrent": "receiver",
            "marblesSampled": 100,
            "probRed": 0.5,
            "lambda": 5,
            "drawnRed": 47,
            "reportedRed": 43,
            "inferredRed": 48,
            "playerTrialScore": -1,
            "oppTrialScore": 0,
            "playerTotalScore": -227,
            "oppTotalScore": -33,
            "waitTime": 5449.13825121616,
            "responseTime": 1642992258654,
            "catchQuestion": "How many <b class=\"r\">red<\/b> marbles did your opponent report drawing? ",
            "catchKey": -1,
            "catchResponse": -1,
            "catchTime": 1642992258655,
            "trialTime": 0
        },
        {
            "exptPart": "trial",
            "trialNumber": 86,
            "roleCurrent": "sender",
            "marblesSampled": 100,
            "probRed": 0.5,
            "lambda": 5,
            "drawnRed": 45,
            "reportedRed": 48,
            "inferredRed": 55,
            "playerTrialScore": 0,
            "oppTrialScore": -10,
            "playerTotalScore": -227,
            "oppTotalScore": -43,
            "waitTime": 2538.2126871846367,
            "responseTime": 1642992284426,
            "catchQuestion": "How many <b class=\"r\">red<\/b> marbles did your opponent report drawing? ",
            "catchKey": -1,
            "catchResponse": -1,
            "catchTime": 1642992258655,
            "trialTime": 0
        },
        {
            "exptPart": "trial",
            "trialNumber": 87,
            "roleCurrent": "receiver",
            "marblesSampled": 100,
            "probRed": 0.5,
            "lambda": 5,
            "drawnRed": 27,
            "reportedRed": 17,
            "inferredRed": 18,
            "playerTrialScore": -9,
            "oppTrialScore": 9,
            "playerTotalScore": -236,
            "oppTotalScore": -34,
            "waitTime": 6700.250737998549,
            "responseTime": 1642992301249,
            "catchQuestion": "How many <b class=\"r\">red<\/b> marbles did your opponent report drawing? ",
            "catchKey": -1,
            "catchResponse": -1,
            "catchTime": 1642992258655,
            "trialTime": 0
        },
        {
            "exptPart": "trial",
            "trialNumber": 88,
            "roleCurrent": "sender",
            "marblesSampled": 100,
            "probRed": 0.5,
            "lambda": 5,
            "drawnRed": 62,
            "reportedRed": 59,
            "inferredRed": 62,
            "playerTrialScore": 0,
            "oppTrialScore": 0,
            "playerTotalScore": -236,
            "oppTotalScore": -34,
            "waitTime": 2388.948077077324,
            "responseTime": 1642992315854,
            "catchQuestion": "How many <b class=\"r\">red<\/b> marbles did your opponent report drawing? ",
            "catchKey": -1,
            "catchResponse": -1,
            "catchTime": 1642992258655,
            "trialTime": 0
        },
        {
            "exptPart": "trial",
            "trialNumber": 89,
            "roleCurrent": "receiver",
            "marblesSampled": 100,
            "probRed": 0.5,
            "lambda": 5,
            "drawnRed": 39,
            "reportedRed": 36,
            "inferredRed": 38,
            "playerTrialScore": -1,
            "oppTrialScore": 1,
            "playerTotalScore": -237,
            "oppTotalScore": -33,
            "waitTime": 5879.454774263739,
            "responseTime": 1642992333315,
            "catchQuestion": "How many <b class=\"r\">red<\/b> marbles did your opponent report drawing? ",
            "catchKey": -1,
            "catchResponse": -1,
            "catchTime": 1642992258655,
            "trialTime": 0
        },
        {
            "exptPart": "trial",
            "trialNumber": 90,
            "roleCurrent": "sender",
            "marblesSampled": 100,
            "probRed": 0.5,
            "lambda": 5,
            "drawnRed": 63,
            "reportedRed": 61,
            "inferredRed": 65,
            "playerTrialScore": 0,
            "oppTrialScore": -2,
            "playerTotalScore": -237,
            "oppTotalScore": -35,
            "waitTime": 3209.0517667542254,
            "responseTime": 1642992360667,
            "catchQuestion": "How many <b class=\"r\">red<\/b> marbles did your opponent report drawing? ",
            "catchKey": -1,
            "catchResponse": -1,
            "catchTime": 1642992360667,
            "trialTime": 0
        },
        {
            "exptPart": "trial",
            "trialNumber": 91,
            "roleCurrent": "receiver",
            "marblesSampled": 100,
            "probRed": 0.5,
            "lambda": 5,
            "drawnRed": 77,
            "reportedRed": 71,
            "inferredRed": 75,
            "playerTrialScore": -2,
            "oppTrialScore": 2,
            "playerTotalScore": -239,
            "oppTotalScore": -33,
            "waitTime": 6453.545809684197,
            "responseTime": 1642992382232,
            "catchQuestion": "How many <b class=\"r\">red<\/b> marbles did your opponent report drawing? ",
            "catchKey": -1,
            "catchResponse": -1,
            "catchTime": 1642992360667,
            "trialTime": 0
        },
        {
            "exptPart": "trial",
            "trialNumber": 92,
            "roleCurrent": "sender",
            "marblesSampled": 100,
            "probRed": 0.5,
            "lambda": 5,
            "drawnRed": 24,
            "reportedRed": 20,
            "inferredRed": 24,
            "playerTrialScore": 0,
            "oppTrialScore": 0,
            "playerTotalScore": -239,
            "oppTotalScore": -33,
            "waitTime": 2513.6167380206593,
            "responseTime": 1642992403116,
            "catchQuestion": "How many <b class=\"r\">red<\/b> marbles did your opponent report drawing? ",
            "catchKey": -1,
            "catchResponse": -1,
            "catchTime": 1642992360667,
            "trialTime": 0
        },
        {
            "exptPart": "trial",
            "trialNumber": 93,
            "roleCurrent": "receiver",
            "marblesSampled": 100,
            "probRed": 0.5,
            "lambda": 5,
            "drawnRed": 68,
            "reportedRed": 62,
            "inferredRed": 67,
            "playerTrialScore": -1,
            "oppTrialScore": 1,
            "playerTotalScore": -240,
            "oppTotalScore": -32,
            "waitTime": 5660.609142422078,
            "responseTime": 1642992418130,
            "catchQuestion": "How many <b class=\"r\">red<\/b> marbles did your opponent report drawing? ",
            "catchKey": -1,
            "catchResponse": -1,
            "catchTime": 1642992360667,
            "trialTime": 0
        },
        {
            "exptPart": "trial",
            "trialNumber": 94,
            "roleCurrent": "sender",
            "marblesSampled": 100,
            "probRed": 0.5,
            "lambda": 5,
            "drawnRed": 53,
            "reportedRed": 48,
            "inferredRed": 52,
            "playerTrialScore": 1,
            "oppTrialScore": -1,
            "playerTotalScore": -239,
            "oppTotalScore": -33,
            "waitTime": 2437.9095139498913,
            "responseTime": 1642992437575,
            "catchQuestion": "How many <b class=\"r\">red<\/b> marbles did your opponent report drawing? ",
            "catchKey": -1,
            "catchResponse": -1,
            "catchTime": 1642992360667,
            "trialTime": 0
        },
        {
            "exptPart": "trial",
            "trialNumber": 95,
            "roleCurrent": "receiver",
            "marblesSampled": 100,
            "probRed": 0.5,
            "lambda": 5,
            "drawnRed": 56,
            "reportedRed": 50,
            "inferredRed": 54,
            "playerTrialScore": -2,
            "oppTrialScore": 2,
            "playerTotalScore": -241,
            "oppTotalScore": -31,
            "waitTime": 7373.867408385778,
            "responseTime": 1642992453428,
            "catchQuestion": "How many <b class=\"r\">red<\/b> marbles did your opponent report drawing? ",
            "catchKey": -1,
            "catchResponse": -1,
            "catchTime": 1642992453428,
            "trialTime": 0
        },
        {
            "exptPart": "trial",
            "trialNumber": 96,
            "roleCurrent": "sender",
            "marblesSampled": 100,
            "probRed": 0.5,
            "lambda": 5,
            "drawnRed": 33,
            "reportedRed": 41,
            "inferredRed": 45,
            "playerTrialScore": 0,
            "oppTrialScore": -12,
            "playerTotalScore": -241,
            "oppTotalScore": -43,
            "waitTime": 2086.4870446912846,
            "responseTime": 1642992491276,
            "catchQuestion": "How many <b class=\"r\">red<\/b> marbles did your opponent report drawing? ",
            "catchKey": -1,
            "catchResponse": -1,
            "catchTime": 1642992453428,
            "trialTime": 0
        },
        {
            "exptPart": "trial",
            "trialNumber": 97,
            "roleCurrent": "receiver",
            "marblesSampled": 100,
            "probRed": 0.5,
            "lambda": 5,
            "drawnRed": 30,
            "reportedRed": 26,
            "inferredRed": 31,
            "playerTrialScore": -1,
            "oppTrialScore": 0,
            "playerTotalScore": -242,
            "oppTotalScore": -43,
            "waitTime": 6029.793218997715,
            "responseTime": 1642992507322,
            "catchQuestion": "How many <b class=\"r\">red<\/b> marbles did your opponent report drawing? ",
            "catchKey": -1,
            "catchResponse": -1,
            "catchTime": 1642992453428,
            "trialTime": 0
        },
        {
            "exptPart": "trial",
            "trialNumber": 98,
            "roleCurrent": "sender",
            "marblesSampled": 100,
            "probRed": 0.5,
            "lambda": 5,
            "drawnRed": 50,
            "reportedRed": 42,
            "inferredRed": 48,
            "playerTrialScore": 2,
            "oppTrialScore": -2,
            "playerTotalScore": -240,
            "oppTotalScore": -45,
            "waitTime": 2265.6926270092836,
            "responseTime": 1642992538409,
            "catchQuestion": "How many <b class=\"r\">red<\/b> marbles did your opponent report drawing? ",
            "catchKey": -1,
            "catchResponse": -1,
            "catchTime": 1642992453428,
            "trialTime": 0
        },
        {
            "exptPart": "trial",
            "trialNumber": 99,
            "roleCurrent": "receiver",
            "marblesSampled": 100,
            "probRed": 0.5,
            "lambda": 5,
            "drawnRed": 81,
            "reportedRed": 73,
            "inferredRed": 74,
            "playerTrialScore": -7,
            "oppTrialScore": 7,
            "playerTotalScore": -247,
            "oppTotalScore": -38,
            "waitTime": 5320.144523389187,
            "responseTime": 1642992554240,
            "catchQuestion": "How many <b class=\"r\">red<\/b> marbles did your opponent report drawing? ",
            "catchKey": -1,
            "catchResponse": -1,
            "catchTime": 1642992453428,
            "trialTime": 0
        },
        {
            "exptPart": "trial",
            "trialNumber": 100,
            "roleCurrent": "sender",
            "marblesSampled": 100,
            "probRed": 0.5,
            "lambda": 5,
            "drawnRed": 52,
            "reportedRed": 46,
            "inferredRed": 53,
            "playerTrialScore": 0,
            "oppTrialScore": -1,
            "playerTotalScore": -247,
            "oppTotalScore": -39,
            "waitTime": 2576.0145874603677,
            "responseTime": 1642992576468,
            "catchQuestion": "How many <b class=\"r\">red<\/b> marbles did your opponent report drawing? ",
            "catchKey": -1,
            "catchResponse": -1,
            "catchTime": 1642992576468,
            "trialTime": 0
        }
    ]
}