{
    "client": {
        "type": "sona",
        "experiment_id": 2228,
        "credit_token": "b315147ae43241ea9c65086cb510cfb7",
        "survey_code": "26948",
        "sid": "sona-26948",
        "window": {
            "width": 1420,
            "height": 690
        },
        "screen": {
            "width": 1440,
            "height": 900
        },
        "userAgent": "Mozilla\/5.0 (Macintosh; Intel Mac OS X 10_14_6) AppleWebKit\/537.36 (KHTML, like Gecko) Chrome\/96.0.4664.110 Safari\/537.36",
        "score": 0,
        "bonus": 0
    },
    "expt": {
        "saveURL": "submit.simple.php",
        "trials": 100,
        "practiceTrials": 2,
        "marblesSampled": 100,
        "probRed": 0.5,
        "lambdaAI": 5,
        "roleFirst": "receiver",
        "roles": [
            "sender",
            "receiver"
        ],
        "cost": "unif",
        "goal": "over",
        "catchTrials": [
            14,
            86,
            12,
            50,
            21,
            72,
            84,
            61,
            77,
            3
        ],
        "scoreTotal": {
            "player": 98,
            "opp": -400
        },
        "sona": {
            "experiment_id": 2228,
            "credit_token": "b315147ae43241ea9c65086cb510cfb7"
        },
        "pilot": false,
        "debug": false
    },
    "trials": [
        {
            "exptPart": "practice",
            "trialNumber": 1,
            "roleCurrent": "sender",
            "marblesSampled": 100,
            "probRed": 0.5,
            "lambda": 5,
            "drawnRed": 49,
            "reportedRed": 49,
            "inferredRed": 38,
            "playerTrialScore": 0,
            "oppTrialScore": -11,
            "playerTotalScore": 0,
            "oppTotalScore": -11,
            "waitTime": 2458.5627909983777,
            "responseTime": 1642477859760,
            "catchQuestion": "How many <b class=\"r\">red<\/b> marbles did you actually draw (before any changes)? ",
            "catchKey": 49,
            "catchResponse": 49,
            "catchTime": 1642477859760,
            "trialTime": 0
        },
        {
            "exptPart": "practice",
            "trialNumber": 2,
            "roleCurrent": "receiver",
            "marblesSampled": 100,
            "probRed": 0.5,
            "lambda": 5,
            "drawnRed": 46,
            "reportedRed": 49,
            "inferredRed": 40,
            "playerTrialScore": -6,
            "oppTrialScore": 0,
            "playerTotalScore": -6,
            "oppTotalScore": -11,
            "waitTime": 6064.159106234144,
            "responseTime": 1642477916107,
            "catchQuestion": "How many <b class=\"r\">red<\/b> marbles did your opponent report drawing? ",
            "catchKey": 49,
            "catchResponse": 49,
            "catchTime": 1642477916107,
            "trialTime": 0
        },
        {
            "exptPart": "trial",
            "trialNumber": 1,
            "roleCurrent": "receiver",
            "marblesSampled": 100,
            "probRed": 0.5,
            "lambda": 5,
            "drawnRed": 58,
            "reportedRed": 65,
            "inferredRed": 55,
            "playerTrialScore": -3,
            "oppTrialScore": 0,
            "playerTotalScore": -3,
            "oppTotalScore": 0,
            "waitTime": 5987.070624859096,
            "responseTime": 1642477945294,
            "catchQuestion": "How many <b class=\"r\">red<\/b> marbles did your opponent report drawing? ",
            "catchKey": -1,
            "catchResponse": -1,
            "catchTime": 1642477916107,
            "trialTime": 0
        },
        {
            "exptPart": "trial",
            "trialNumber": 2,
            "roleCurrent": "sender",
            "marblesSampled": 100,
            "probRed": 0.5,
            "lambda": 5,
            "drawnRed": 59,
            "reportedRed": 59,
            "inferredRed": 54,
            "playerTrialScore": 0,
            "oppTrialScore": -5,
            "playerTotalScore": -3,
            "oppTotalScore": -5,
            "waitTime": 2204.768109993989,
            "responseTime": 1642477964258,
            "catchQuestion": "How many <b class=\"r\">red<\/b> marbles did your opponent report drawing? ",
            "catchKey": -1,
            "catchResponse": -1,
            "catchTime": 1642477916107,
            "trialTime": 0
        },
        {
            "exptPart": "trial",
            "trialNumber": 3,
            "roleCurrent": "receiver",
            "marblesSampled": 100,
            "probRed": 0.5,
            "lambda": 5,
            "drawnRed": 41,
            "reportedRed": 44,
            "inferredRed": 40,
            "playerTrialScore": -1,
            "oppTrialScore": 0,
            "playerTotalScore": -4,
            "oppTotalScore": -5,
            "waitTime": 5518.750464576225,
            "responseTime": 1642477989095,
            "catchQuestion": "How many <b class=\"r\">red<\/b> marbles did your opponent report drawing? ",
            "catchKey": -1,
            "catchResponse": -1,
            "catchTime": 1642477916107,
            "trialTime": 0
        },
        {
            "exptPart": "trial",
            "trialNumber": 4,
            "roleCurrent": "sender",
            "marblesSampled": 100,
            "probRed": 0.5,
            "lambda": 5,
            "drawnRed": 86,
            "reportedRed": 86,
            "inferredRed": 81,
            "playerTrialScore": 0,
            "oppTrialScore": -5,
            "playerTotalScore": -4,
            "oppTotalScore": -10,
            "waitTime": 2966.9447787847685,
            "responseTime": 1642478000508,
            "catchQuestion": "How many <b class=\"r\">red<\/b> marbles did you actually draw (before any changes)? ",
            "catchKey": 86,
            "catchResponse": 89,
            "catchTime": 1642478000508,
            "trialTime": 0
        },
        {
            "exptPart": "trial",
            "trialNumber": 5,
            "roleCurrent": "receiver",
            "marblesSampled": 100,
            "probRed": 0.5,
            "lambda": 5,
            "drawnRed": 27,
            "reportedRed": 32,
            "inferredRed": 32,
            "playerTrialScore": -5,
            "oppTrialScore": 5,
            "playerTotalScore": -9,
            "oppTotalScore": -5,
            "waitTime": 6079.928440672077,
            "responseTime": 1642478023267,
            "catchQuestion": "How many <b class=\"r\">red<\/b> marbles did you actually draw (before any changes)? ",
            "catchKey": -1,
            "catchResponse": -1,
            "catchTime": 1642478023267,
            "trialTime": 0
        },
        {
            "exptPart": "trial",
            "trialNumber": 6,
            "roleCurrent": "sender",
            "marblesSampled": 100,
            "probRed": 0.5,
            "lambda": 5,
            "drawnRed": 48,
            "reportedRed": 48,
            "inferredRed": 41,
            "playerTrialScore": 0,
            "oppTrialScore": -7,
            "playerTotalScore": -9,
            "oppTotalScore": -12,
            "waitTime": 2989.330574314704,
            "responseTime": 1642478037419,
            "catchQuestion": "How many <b class=\"r\">red<\/b> marbles did you actually draw (before any changes)? ",
            "catchKey": -1,
            "catchResponse": -1,
            "catchTime": 1642478023267,
            "trialTime": 0
        },
        {
            "exptPart": "trial",
            "trialNumber": 7,
            "roleCurrent": "receiver",
            "marblesSampled": 100,
            "probRed": 0.5,
            "lambda": 5,
            "drawnRed": 41,
            "reportedRed": 51,
            "inferredRed": 55,
            "playerTrialScore": -14,
            "oppTrialScore": 14,
            "playerTotalScore": -23,
            "oppTotalScore": 2,
            "waitTime": 6862.1932442235375,
            "responseTime": 1642478054108,
            "catchQuestion": "How many <b class=\"r\">red<\/b> marbles did you actually draw (before any changes)? ",
            "catchKey": -1,
            "catchResponse": -1,
            "catchTime": 1642478023267,
            "trialTime": 0
        },
        {
            "exptPart": "trial",
            "trialNumber": 8,
            "roleCurrent": "sender",
            "marblesSampled": 100,
            "probRed": 0.5,
            "lambda": 5,
            "drawnRed": 41,
            "reportedRed": 41,
            "inferredRed": 37,
            "playerTrialScore": 0,
            "oppTrialScore": -4,
            "playerTotalScore": -23,
            "oppTotalScore": -2,
            "waitTime": 3215.665362124229,
            "responseTime": 1642478063750,
            "catchQuestion": "How many <b class=\"r\">red<\/b> marbles did you actually draw (before any changes)? ",
            "catchKey": -1,
            "catchResponse": -1,
            "catchTime": 1642478023267,
            "trialTime": 0
        },
        {
            "exptPart": "trial",
            "trialNumber": 9,
            "roleCurrent": "receiver",
            "marblesSampled": 100,
            "probRed": 0.5,
            "lambda": 5,
            "drawnRed": 73,
            "reportedRed": 80,
            "inferredRed": 65,
            "playerTrialScore": -8,
            "oppTrialScore": 0,
            "playerTotalScore": -31,
            "oppTotalScore": -2,
            "waitTime": 5973.13787336227,
            "responseTime": 1642478075579,
            "catchQuestion": "How many <b class=\"r\">red<\/b> marbles did you actually draw (before any changes)? ",
            "catchKey": -1,
            "catchResponse": -1,
            "catchTime": 1642478023267,
            "trialTime": 0
        },
        {
            "exptPart": "trial",
            "trialNumber": 10,
            "roleCurrent": "sender",
            "marblesSampled": 100,
            "probRed": 0.5,
            "lambda": 5,
            "drawnRed": 79,
            "reportedRed": 79,
            "inferredRed": 75,
            "playerTrialScore": 0,
            "oppTrialScore": -4,
            "playerTotalScore": -31,
            "oppTotalScore": -6,
            "waitTime": 2585.016936039746,
            "responseTime": 1642478085332,
            "catchQuestion": "How many <b class=\"r\">red<\/b> marbles did you actually draw (before any changes)? ",
            "catchKey": -1,
            "catchResponse": -1,
            "catchTime": 1642478085332,
            "trialTime": 0
        },
        {
            "exptPart": "trial",
            "trialNumber": 11,
            "roleCurrent": "receiver",
            "marblesSampled": 100,
            "probRed": 0.5,
            "lambda": 5,
            "drawnRed": 12,
            "reportedRed": 17,
            "inferredRed": 20,
            "playerTrialScore": -8,
            "oppTrialScore": 8,
            "playerTotalScore": -39,
            "oppTotalScore": 2,
            "waitTime": 5502.932408741535,
            "responseTime": 1642478101945,
            "catchQuestion": "How many <b class=\"r\">red<\/b> marbles did you actually draw (before any changes)? ",
            "catchKey": -1,
            "catchResponse": -1,
            "catchTime": 1642478085332,
            "trialTime": 0
        },
        {
            "exptPart": "trial",
            "trialNumber": 12,
            "roleCurrent": "sender",
            "marblesSampled": 100,
            "probRed": 0.5,
            "lambda": 5,
            "drawnRed": 74,
            "reportedRed": 74,
            "inferredRed": 69,
            "playerTrialScore": 0,
            "oppTrialScore": -5,
            "playerTotalScore": -39,
            "oppTotalScore": -3,
            "waitTime": 2543.207664279502,
            "responseTime": 1642478111756,
            "catchQuestion": "How many <b class=\"r\">red<\/b> marbles did you actually draw (before any changes)? ",
            "catchKey": -1,
            "catchResponse": -1,
            "catchTime": 1642478085332,
            "trialTime": 0
        },
        {
            "exptPart": "trial",
            "trialNumber": 13,
            "roleCurrent": "receiver",
            "marblesSampled": 100,
            "probRed": 0.5,
            "lambda": 5,
            "drawnRed": 85,
            "reportedRed": 93,
            "inferredRed": 60,
            "playerTrialScore": -25,
            "oppTrialScore": 0,
            "playerTotalScore": -64,
            "oppTotalScore": -3,
            "waitTime": 6799.319756321842,
            "responseTime": 1642478130915,
            "catchQuestion": "How many <b class=\"r\">red<\/b> marbles did your opponent report drawing? ",
            "catchKey": 93,
            "catchResponse": 93,
            "catchTime": 1642478130915,
            "trialTime": 0
        },
        {
            "exptPart": "trial",
            "trialNumber": 14,
            "roleCurrent": "sender",
            "marblesSampled": 100,
            "probRed": 0.5,
            "lambda": 5,
            "drawnRed": 20,
            "reportedRed": 20,
            "inferredRed": 14,
            "playerTrialScore": 0,
            "oppTrialScore": -6,
            "playerTotalScore": -64,
            "oppTotalScore": -9,
            "waitTime": 2989.5638256015764,
            "responseTime": 1642478148519,
            "catchQuestion": "How many <b class=\"r\">red<\/b> marbles did your opponent report drawing? ",
            "catchKey": -1,
            "catchResponse": -1,
            "catchTime": 1642478130915,
            "trialTime": 0
        },
        {
            "exptPart": "trial",
            "trialNumber": 15,
            "roleCurrent": "receiver",
            "marblesSampled": 100,
            "probRed": 0.5,
            "lambda": 5,
            "drawnRed": 45,
            "reportedRed": 51,
            "inferredRed": 55,
            "playerTrialScore": -10,
            "oppTrialScore": 10,
            "playerTotalScore": -74,
            "oppTotalScore": 1,
            "waitTime": 5335.949669772721,
            "responseTime": 1642478164389,
            "catchQuestion": "How many <b class=\"r\">red<\/b> marbles did your opponent report drawing? ",
            "catchKey": 51,
            "catchResponse": 51,
            "catchTime": 1642478164389,
            "trialTime": 0
        },
        {
            "exptPart": "trial",
            "trialNumber": 16,
            "roleCurrent": "sender",
            "marblesSampled": 100,
            "probRed": 0.5,
            "lambda": 5,
            "drawnRed": 79,
            "reportedRed": 79,
            "inferredRed": 74,
            "playerTrialScore": 0,
            "oppTrialScore": -5,
            "playerTotalScore": -74,
            "oppTotalScore": -4,
            "waitTime": 2883.562500514185,
            "responseTime": 1642478189496,
            "catchQuestion": "How many <b class=\"r\">red<\/b> marbles did your opponent report drawing? ",
            "catchKey": -1,
            "catchResponse": -1,
            "catchTime": 1642478164389,
            "trialTime": 0
        },
        {
            "exptPart": "trial",
            "trialNumber": 17,
            "roleCurrent": "receiver",
            "marblesSampled": 100,
            "probRed": 0.5,
            "lambda": 5,
            "drawnRed": 8,
            "reportedRed": 16,
            "inferredRed": 16,
            "playerTrialScore": -8,
            "oppTrialScore": 8,
            "playerTotalScore": -82,
            "oppTotalScore": 4,
            "waitTime": 6527.211431784055,
            "responseTime": 1642478213301,
            "catchQuestion": "How many <b class=\"r\">red<\/b> marbles did your opponent report drawing? ",
            "catchKey": -1,
            "catchResponse": -1,
            "catchTime": 1642478164389,
            "trialTime": 0
        },
        {
            "exptPart": "trial",
            "trialNumber": 18,
            "roleCurrent": "sender",
            "marblesSampled": 100,
            "probRed": 0.5,
            "lambda": 5,
            "drawnRed": 32,
            "reportedRed": 32,
            "inferredRed": 23,
            "playerTrialScore": 0,
            "oppTrialScore": -9,
            "playerTotalScore": -82,
            "oppTotalScore": -5,
            "waitTime": 3047.3216137854097,
            "responseTime": 1642478222226,
            "catchQuestion": "How many <b class=\"r\">red<\/b> marbles did your opponent report drawing? ",
            "catchKey": -1,
            "catchResponse": -1,
            "catchTime": 1642478164389,
            "trialTime": 0
        },
        {
            "exptPart": "trial",
            "trialNumber": 19,
            "roleCurrent": "receiver",
            "marblesSampled": 100,
            "probRed": 0.5,
            "lambda": 5,
            "drawnRed": 40,
            "reportedRed": 47,
            "inferredRed": 46,
            "playerTrialScore": -6,
            "oppTrialScore": 6,
            "playerTotalScore": -88,
            "oppTotalScore": 1,
            "waitTime": 5997.349029890619,
            "responseTime": 1642478235793,
            "catchQuestion": "How many <b class=\"r\">red<\/b> marbles did your opponent report drawing? ",
            "catchKey": -1,
            "catchResponse": -1,
            "catchTime": 1642478164389,
            "trialTime": 0
        },
        {
            "exptPart": "trial",
            "trialNumber": 20,
            "roleCurrent": "sender",
            "marblesSampled": 100,
            "probRed": 0.5,
            "lambda": 5,
            "drawnRed": 44,
            "reportedRed": 44,
            "inferredRed": 40,
            "playerTrialScore": 0,
            "oppTrialScore": -4,
            "playerTotalScore": -88,
            "oppTotalScore": -3,
            "waitTime": 2179.7783632572055,
            "responseTime": 1642478249576,
            "catchQuestion": "How many <b class=\"r\">red<\/b> marbles did your opponent report drawing? ",
            "catchKey": -1,
            "catchResponse": -1,
            "catchTime": 1642478249576,
            "trialTime": 0
        },
        {
            "exptPart": "trial",
            "trialNumber": 21,
            "roleCurrent": "receiver",
            "marblesSampled": 100,
            "probRed": 0.5,
            "lambda": 5,
            "drawnRed": 34,
            "reportedRed": 34,
            "inferredRed": 25,
            "playerTrialScore": -9,
            "oppTrialScore": 0,
            "playerTotalScore": -97,
            "oppTotalScore": -3,
            "waitTime": 5344.7961559503565,
            "responseTime": 1642478287493,
            "catchQuestion": "How many <b class=\"r\">red<\/b> marbles did your opponent report drawing? ",
            "catchKey": -1,
            "catchResponse": -1,
            "catchTime": 1642478249576,
            "trialTime": 0
        },
        {
            "exptPart": "trial",
            "trialNumber": 22,
            "roleCurrent": "sender",
            "marblesSampled": 100,
            "probRed": 0.5,
            "lambda": 5,
            "drawnRed": 50,
            "reportedRed": 50,
            "inferredRed": 46,
            "playerTrialScore": 0,
            "oppTrialScore": -4,
            "playerTotalScore": -97,
            "oppTotalScore": -7,
            "waitTime": 2672.1364041195247,
            "responseTime": 1642478298719,
            "catchQuestion": "How many <b class=\"r\">red<\/b> marbles did you actually draw (before any changes)? ",
            "catchKey": 50,
            "catchResponse": 50,
            "catchTime": 1642478298720,
            "trialTime": 0
        },
        {
            "exptPart": "trial",
            "trialNumber": 23,
            "roleCurrent": "receiver",
            "marblesSampled": 100,
            "probRed": 0.5,
            "lambda": 5,
            "drawnRed": 56,
            "reportedRed": 63,
            "inferredRed": 55,
            "playerTrialScore": -1,
            "oppTrialScore": 0,
            "playerTotalScore": -98,
            "oppTotalScore": -7,
            "waitTime": 5620.887227163683,
            "responseTime": 1642478339190,
            "catchQuestion": "How many <b class=\"r\">red<\/b> marbles did you actually draw (before any changes)? ",
            "catchKey": -1,
            "catchResponse": -1,
            "catchTime": 1642478298720,
            "trialTime": 0
        },
        {
            "exptPart": "trial",
            "trialNumber": 24,
            "roleCurrent": "sender",
            "marblesSampled": 100,
            "probRed": 0.5,
            "lambda": 5,
            "drawnRed": 31,
            "reportedRed": 31,
            "inferredRed": 27,
            "playerTrialScore": 0,
            "oppTrialScore": -4,
            "playerTotalScore": -98,
            "oppTotalScore": -11,
            "waitTime": 2197.3002940668653,
            "responseTime": 1642478347629,
            "catchQuestion": "How many <b class=\"r\">red<\/b> marbles did you actually draw (before any changes)? ",
            "catchKey": -1,
            "catchResponse": -1,
            "catchTime": 1642478298720,
            "trialTime": 0
        },
        {
            "exptPart": "trial",
            "trialNumber": 25,
            "roleCurrent": "receiver",
            "marblesSampled": 100,
            "probRed": 0.5,
            "lambda": 5,
            "drawnRed": 43,
            "reportedRed": 50,
            "inferredRed": 45,
            "playerTrialScore": -2,
            "oppTrialScore": 2,
            "playerTotalScore": -100,
            "oppTotalScore": -9,
            "waitTime": 5356.181219260419,
            "responseTime": 1642478360289,
            "catchQuestion": "How many <b class=\"r\">red<\/b> marbles did you actually draw (before any changes)? ",
            "catchKey": -1,
            "catchResponse": -1,
            "catchTime": 1642478360289,
            "trialTime": 0
        },
        {
            "exptPart": "trial",
            "trialNumber": 26,
            "roleCurrent": "sender",
            "marblesSampled": 100,
            "probRed": 0.5,
            "lambda": 5,
            "drawnRed": 50,
            "reportedRed": 50,
            "inferredRed": 40,
            "playerTrialScore": 0,
            "oppTrialScore": -10,
            "playerTotalScore": -100,
            "oppTotalScore": -19,
            "waitTime": 2551.231532676422,
            "responseTime": 1642478373454,
            "catchQuestion": "How many <b class=\"r\">red<\/b> marbles did you actually draw (before any changes)? ",
            "catchKey": -1,
            "catchResponse": -1,
            "catchTime": 1642478360289,
            "trialTime": 0
        },
        {
            "exptPart": "trial",
            "trialNumber": 27,
            "roleCurrent": "receiver",
            "marblesSampled": 100,
            "probRed": 0.5,
            "lambda": 5,
            "drawnRed": 58,
            "reportedRed": 59,
            "inferredRed": 55,
            "playerTrialScore": -3,
            "oppTrialScore": 0,
            "playerTotalScore": -103,
            "oppTotalScore": -19,
            "waitTime": 5282.140844555393,
            "responseTime": 1642478383367,
            "catchQuestion": "How many <b class=\"r\">red<\/b> marbles did you actually draw (before any changes)? ",
            "catchKey": -1,
            "catchResponse": -1,
            "catchTime": 1642478360289,
            "trialTime": 0
        },
        {
            "exptPart": "trial",
            "trialNumber": 28,
            "roleCurrent": "sender",
            "marblesSampled": 100,
            "probRed": 0.5,
            "lambda": 5,
            "drawnRed": 27,
            "reportedRed": 27,
            "inferredRed": 22,
            "playerTrialScore": 0,
            "oppTrialScore": -5,
            "playerTotalScore": -103,
            "oppTotalScore": -24,
            "waitTime": 3107.6547069020744,
            "responseTime": 1642478393338,
            "catchQuestion": "How many <b class=\"r\">red<\/b> marbles did you actually draw (before any changes)? ",
            "catchKey": -1,
            "catchResponse": -1,
            "catchTime": 1642478360289,
            "trialTime": 0
        },
        {
            "exptPart": "trial",
            "trialNumber": 29,
            "roleCurrent": "receiver",
            "marblesSampled": 100,
            "probRed": 0.5,
            "lambda": 5,
            "drawnRed": 17,
            "reportedRed": 19,
            "inferredRed": 19,
            "playerTrialScore": -2,
            "oppTrialScore": 2,
            "playerTotalScore": -105,
            "oppTotalScore": -22,
            "waitTime": 5325.406753598523,
            "responseTime": 1642478403083,
            "catchQuestion": "How many <b class=\"r\">red<\/b> marbles did you actually draw (before any changes)? ",
            "catchKey": -1,
            "catchResponse": -1,
            "catchTime": 1642478360289,
            "trialTime": 0
        },
        {
            "exptPart": "trial",
            "trialNumber": 30,
            "roleCurrent": "sender",
            "marblesSampled": 100,
            "probRed": 0.5,
            "lambda": 5,
            "drawnRed": 48,
            "reportedRed": 48,
            "inferredRed": 39,
            "playerTrialScore": 0,
            "oppTrialScore": -9,
            "playerTotalScore": -105,
            "oppTotalScore": -31,
            "waitTime": 2864.0973303561286,
            "responseTime": 1642478417272,
            "catchQuestion": "How many <b class=\"r\">red<\/b> marbles did you actually draw (before any changes)? ",
            "catchKey": -1,
            "catchResponse": -1,
            "catchTime": 1642478417273,
            "trialTime": 0
        },
        {
            "exptPart": "trial",
            "trialNumber": 31,
            "roleCurrent": "receiver",
            "marblesSampled": 100,
            "probRed": 0.5,
            "lambda": 5,
            "drawnRed": 76,
            "reportedRed": 86,
            "inferredRed": 75,
            "playerTrialScore": -1,
            "oppTrialScore": 0,
            "playerTotalScore": -106,
            "oppTotalScore": -31,
            "waitTime": 7495.96896423315,
            "responseTime": 1642478436988,
            "catchQuestion": "How many <b class=\"r\">red<\/b> marbles did you actually draw (before any changes)? ",
            "catchKey": -1,
            "catchResponse": -1,
            "catchTime": 1642478417273,
            "trialTime": 0
        },
        {
            "exptPart": "trial",
            "trialNumber": 32,
            "roleCurrent": "sender",
            "marblesSampled": 100,
            "probRed": 0.5,
            "lambda": 5,
            "drawnRed": 38,
            "reportedRed": 38,
            "inferredRed": 34,
            "playerTrialScore": 0,
            "oppTrialScore": -4,
            "playerTotalScore": -106,
            "oppTotalScore": -35,
            "waitTime": 2717.7850885999824,
            "responseTime": 1642478445437,
            "catchQuestion": "How many <b class=\"r\">red<\/b> marbles did you actually draw (before any changes)? ",
            "catchKey": -1,
            "catchResponse": -1,
            "catchTime": 1642478417273,
            "trialTime": 0
        },
        {
            "exptPart": "trial",
            "trialNumber": 33,
            "roleCurrent": "receiver",
            "marblesSampled": 100,
            "probRed": 0.5,
            "lambda": 5,
            "drawnRed": 29,
            "reportedRed": 34,
            "inferredRed": 34,
            "playerTrialScore": -5,
            "oppTrialScore": 5,
            "playerTotalScore": -111,
            "oppTotalScore": -30,
            "waitTime": 5569.624671296247,
            "responseTime": 1642478457207,
            "catchQuestion": "How many <b class=\"r\">red<\/b> marbles did you actually draw (before any changes)? ",
            "catchKey": -1,
            "catchResponse": -1,
            "catchTime": 1642478417273,
            "trialTime": 0
        },
        {
            "exptPart": "trial",
            "trialNumber": 34,
            "roleCurrent": "sender",
            "marblesSampled": 100,
            "probRed": 0.5,
            "lambda": 5,
            "drawnRed": 51,
            "reportedRed": 51,
            "inferredRed": 45,
            "playerTrialScore": 0,
            "oppTrialScore": -6,
            "playerTotalScore": -111,
            "oppTotalScore": -36,
            "waitTime": 2635.6565030358415,
            "responseTime": 1642478473711,
            "catchQuestion": "How many <b class=\"r\">red<\/b> marbles did you actually draw (before any changes)? ",
            "catchKey": -1,
            "catchResponse": -1,
            "catchTime": 1642478417273,
            "trialTime": 0
        },
        {
            "exptPart": "trial",
            "trialNumber": 35,
            "roleCurrent": "receiver",
            "marblesSampled": 100,
            "probRed": 0.5,
            "lambda": 5,
            "drawnRed": 50,
            "reportedRed": 54,
            "inferredRed": 53,
            "playerTrialScore": -3,
            "oppTrialScore": 3,
            "playerTotalScore": -114,
            "oppTotalScore": -33,
            "waitTime": 5542.046044366231,
            "responseTime": 1642478483473,
            "catchQuestion": "How many <b class=\"r\">red<\/b> marbles did you actually draw (before any changes)? ",
            "catchKey": -1,
            "catchResponse": -1,
            "catchTime": 1642478483473,
            "trialTime": 0
        },
        {
            "exptPart": "trial",
            "trialNumber": 36,
            "roleCurrent": "sender",
            "marblesSampled": 100,
            "probRed": 0.5,
            "lambda": 5,
            "drawnRed": 38,
            "reportedRed": 38,
            "inferredRed": 35,
            "playerTrialScore": 0,
            "oppTrialScore": -3,
            "playerTotalScore": -114,
            "oppTotalScore": -36,
            "waitTime": 2403.645699049019,
            "responseTime": 1642478493221,
            "catchQuestion": "How many <b class=\"r\">red<\/b> marbles did you actually draw (before any changes)? ",
            "catchKey": -1,
            "catchResponse": -1,
            "catchTime": 1642478483473,
            "trialTime": 0
        },
        {
            "exptPart": "trial",
            "trialNumber": 37,
            "roleCurrent": "receiver",
            "marblesSampled": 100,
            "probRed": 0.5,
            "lambda": 5,
            "drawnRed": 45,
            "reportedRed": 48,
            "inferredRed": 46,
            "playerTrialScore": -1,
            "oppTrialScore": 1,
            "playerTotalScore": -115,
            "oppTotalScore": -35,
            "waitTime": 6320.24552543255,
            "responseTime": 1642478505300,
            "catchQuestion": "How many <b class=\"r\">red<\/b> marbles did you actually draw (before any changes)? ",
            "catchKey": -1,
            "catchResponse": -1,
            "catchTime": 1642478483473,
            "trialTime": 0
        },
        {
            "exptPart": "trial",
            "trialNumber": 38,
            "roleCurrent": "sender",
            "marblesSampled": 100,
            "probRed": 0.5,
            "lambda": 5,
            "drawnRed": 82,
            "reportedRed": 82,
            "inferredRed": 80,
            "playerTrialScore": 0,
            "oppTrialScore": -2,
            "playerTotalScore": -115,
            "oppTotalScore": -37,
            "waitTime": 2524.4896247230245,
            "responseTime": 1642478515850,
            "catchQuestion": "How many <b class=\"r\">red<\/b> marbles did you actually draw (before any changes)? ",
            "catchKey": -1,
            "catchResponse": -1,
            "catchTime": 1642478483473,
            "trialTime": 0
        },
        {
            "exptPart": "trial",
            "trialNumber": 39,
            "roleCurrent": "receiver",
            "marblesSampled": 100,
            "probRed": 0.5,
            "lambda": 5,
            "drawnRed": 48,
            "reportedRed": 55,
            "inferredRed": 53,
            "playerTrialScore": -5,
            "oppTrialScore": 5,
            "playerTotalScore": -120,
            "oppTotalScore": -32,
            "waitTime": 5205.642769336008,
            "responseTime": 1642478525190,
            "catchQuestion": "How many <b class=\"r\">red<\/b> marbles did you actually draw (before any changes)? ",
            "catchKey": -1,
            "catchResponse": -1,
            "catchTime": 1642478483473,
            "trialTime": 0
        },
        {
            "exptPart": "trial",
            "trialNumber": 40,
            "roleCurrent": "sender",
            "marblesSampled": 100,
            "probRed": 0.5,
            "lambda": 5,
            "drawnRed": 32,
            "reportedRed": 32,
            "inferredRed": 29,
            "playerTrialScore": 0,
            "oppTrialScore": -3,
            "playerTotalScore": -120,
            "oppTotalScore": -35,
            "waitTime": 2518.6152556457214,
            "responseTime": 1642478534094,
            "catchQuestion": "How many <b class=\"r\">red<\/b> marbles did you actually draw (before any changes)? ",
            "catchKey": -1,
            "catchResponse": -1,
            "catchTime": 1642478534095,
            "trialTime": 0
        },
        {
            "exptPart": "trial",
            "trialNumber": 41,
            "roleCurrent": "receiver",
            "marblesSampled": 100,
            "probRed": 0.5,
            "lambda": 5,
            "drawnRed": 77,
            "reportedRed": 84,
            "inferredRed": 82,
            "playerTrialScore": -5,
            "oppTrialScore": 5,
            "playerTotalScore": -125,
            "oppTotalScore": -30,
            "waitTime": 5981.7289577087795,
            "responseTime": 1642478548492,
            "catchQuestion": "How many <b class=\"r\">red<\/b> marbles did you actually draw (before any changes)? ",
            "catchKey": -1,
            "catchResponse": -1,
            "catchTime": 1642478534095,
            "trialTime": 0
        },
        {
            "exptPart": "trial",
            "trialNumber": 42,
            "roleCurrent": "sender",
            "marblesSampled": 100,
            "probRed": 0.5,
            "lambda": 5,
            "drawnRed": 72,
            "reportedRed": 72,
            "inferredRed": 70,
            "playerTrialScore": 0,
            "oppTrialScore": -2,
            "playerTotalScore": -125,
            "oppTotalScore": -32,
            "waitTime": 2474.3649561725424,
            "responseTime": 1642478556939,
            "catchQuestion": "How many <b class=\"r\">red<\/b> marbles did you actually draw (before any changes)? ",
            "catchKey": -1,
            "catchResponse": -1,
            "catchTime": 1642478534095,
            "trialTime": 0
        },
        {
            "exptPart": "trial",
            "trialNumber": 43,
            "roleCurrent": "receiver",
            "marblesSampled": 100,
            "probRed": 0.5,
            "lambda": 5,
            "drawnRed": 33,
            "reportedRed": 37,
            "inferredRed": 36,
            "playerTrialScore": -3,
            "oppTrialScore": 3,
            "playerTotalScore": -128,
            "oppTotalScore": -29,
            "waitTime": 6638.191086950943,
            "responseTime": 1642478570770,
            "catchQuestion": "How many <b class=\"r\">red<\/b> marbles did you actually draw (before any changes)? ",
            "catchKey": -1,
            "catchResponse": -1,
            "catchTime": 1642478534095,
            "trialTime": 0
        },
        {
            "exptPart": "trial",
            "trialNumber": 44,
            "roleCurrent": "sender",
            "marblesSampled": 100,
            "probRed": 0.5,
            "lambda": 5,
            "drawnRed": 58,
            "reportedRed": 58,
            "inferredRed": 54,
            "playerTrialScore": 0,
            "oppTrialScore": -4,
            "playerTotalScore": -128,
            "oppTotalScore": -33,
            "waitTime": 2316.969903354883,
            "responseTime": 1642478579821,
            "catchQuestion": "How many <b class=\"r\">red<\/b> marbles did you actually draw (before any changes)? ",
            "catchKey": -1,
            "catchResponse": -1,
            "catchTime": 1642478534095,
            "trialTime": 0
        },
        {
            "exptPart": "trial",
            "trialNumber": 45,
            "roleCurrent": "receiver",
            "marblesSampled": 100,
            "probRed": 0.5,
            "lambda": 5,
            "drawnRed": 25,
            "reportedRed": 34,
            "inferredRed": 32,
            "playerTrialScore": -7,
            "oppTrialScore": 7,
            "playerTotalScore": -135,
            "oppTotalScore": -26,
            "waitTime": 6557.949548988903,
            "responseTime": 1642478592860,
            "catchQuestion": "How many <b class=\"r\">red<\/b> marbles did you actually draw (before any changes)? ",
            "catchKey": -1,
            "catchResponse": -1,
            "catchTime": 1642478592860,
            "trialTime": 0
        },
        {
            "exptPart": "trial",
            "trialNumber": 46,
            "roleCurrent": "sender",
            "marblesSampled": 100,
            "probRed": 0.5,
            "lambda": 5,
            "drawnRed": 71,
            "reportedRed": 71,
            "inferredRed": 63,
            "playerTrialScore": 0,
            "oppTrialScore": -8,
            "playerTotalScore": -135,
            "oppTotalScore": -34,
            "waitTime": 2622.8328281474996,
            "responseTime": 1642478603891,
            "catchQuestion": "How many <b class=\"r\">red<\/b> marbles did you actually draw (before any changes)? ",
            "catchKey": -1,
            "catchResponse": -1,
            "catchTime": 1642478592860,
            "trialTime": 0
        },
        {
            "exptPart": "trial",
            "trialNumber": 47,
            "roleCurrent": "receiver",
            "marblesSampled": 100,
            "probRed": 0.5,
            "lambda": 5,
            "drawnRed": 72,
            "reportedRed": 83,
            "inferredRed": 79,
            "playerTrialScore": -7,
            "oppTrialScore": 7,
            "playerTotalScore": -142,
            "oppTotalScore": -27,
            "waitTime": 6305.231192132536,
            "responseTime": 1642478616940,
            "catchQuestion": "How many <b class=\"r\">red<\/b> marbles did you actually draw (before any changes)? ",
            "catchKey": -1,
            "catchResponse": -1,
            "catchTime": 1642478592860,
            "trialTime": 0
        },
        {
            "exptPart": "trial",
            "trialNumber": 48,
            "roleCurrent": "sender",
            "marblesSampled": 100,
            "probRed": 0.5,
            "lambda": 5,
            "drawnRed": 75,
            "reportedRed": 75,
            "inferredRed": 69,
            "playerTrialScore": 0,
            "oppTrialScore": -6,
            "playerTotalScore": -142,
            "oppTotalScore": -33,
            "waitTime": 2579.0120149910435,
            "responseTime": 1642478625274,
            "catchQuestion": "How many <b class=\"r\">red<\/b> marbles did you actually draw (before any changes)? ",
            "catchKey": -1,
            "catchResponse": -1,
            "catchTime": 1642478592860,
            "trialTime": 0
        },
        {
            "exptPart": "trial",
            "trialNumber": 49,
            "roleCurrent": "receiver",
            "marblesSampled": 100,
            "probRed": 0.5,
            "lambda": 5,
            "drawnRed": 18,
            "reportedRed": 28,
            "inferredRed": 28,
            "playerTrialScore": -10,
            "oppTrialScore": 10,
            "playerTotalScore": -152,
            "oppTotalScore": -23,
            "waitTime": 6795.446348797147,
            "responseTime": 1642478637829,
            "catchQuestion": "How many <b class=\"r\">red<\/b> marbles did you actually draw (before any changes)? ",
            "catchKey": -1,
            "catchResponse": -1,
            "catchTime": 1642478592860,
            "trialTime": 0
        },
        {
            "exptPart": "trial",
            "trialNumber": 50,
            "roleCurrent": "sender",
            "marblesSampled": 100,
            "probRed": 0.5,
            "lambda": 5,
            "drawnRed": 64,
            "reportedRed": 64,
            "inferredRed": 61,
            "playerTrialScore": 0,
            "oppTrialScore": -3,
            "playerTotalScore": -152,
            "oppTotalScore": -26,
            "waitTime": 2236.1937251015083,
            "responseTime": 1642478659007,
            "catchQuestion": "How many <b class=\"r\">red<\/b> marbles did you actually draw (before any changes)? ",
            "catchKey": -1,
            "catchResponse": -1,
            "catchTime": 1642478659007,
            "trialTime": 0
        },
        {
            "exptPart": "trial",
            "trialNumber": 51,
            "roleCurrent": "receiver",
            "marblesSampled": 100,
            "probRed": 0.5,
            "lambda": 5,
            "drawnRed": 51,
            "reportedRed": 54,
            "inferredRed": 50,
            "playerTrialScore": -1,
            "oppTrialScore": 0,
            "playerTotalScore": -153,
            "oppTotalScore": -26,
            "waitTime": 6501.048633706354,
            "responseTime": 1642478688711,
            "catchQuestion": "How many <b class=\"r\">red<\/b> marbles did your opponent report drawing? ",
            "catchKey": 54,
            "catchResponse": 54,
            "catchTime": 1642478688711,
            "trialTime": 0
        },
        {
            "exptPart": "trial",
            "trialNumber": 52,
            "roleCurrent": "sender",
            "marblesSampled": 100,
            "probRed": 0.5,
            "lambda": 5,
            "drawnRed": 26,
            "reportedRed": 43,
            "inferredRed": 39,
            "playerTrialScore": 13,
            "oppTrialScore": -13,
            "playerTotalScore": -140,
            "oppTotalScore": -39,
            "waitTime": 2906.6300948116273,
            "responseTime": 1642478713857,
            "catchQuestion": "How many <b class=\"r\">red<\/b> marbles did your opponent report drawing? ",
            "catchKey": -1,
            "catchResponse": -1,
            "catchTime": 1642478688711,
            "trialTime": 0
        },
        {
            "exptPart": "trial",
            "trialNumber": 53,
            "roleCurrent": "receiver",
            "marblesSampled": 100,
            "probRed": 0.5,
            "lambda": 5,
            "drawnRed": 39,
            "reportedRed": 42,
            "inferredRed": 35,
            "playerTrialScore": -4,
            "oppTrialScore": 0,
            "playerTotalScore": -144,
            "oppTotalScore": -39,
            "waitTime": 5217.153857407044,
            "responseTime": 1642478725209,
            "catchQuestion": "How many <b class=\"r\">red<\/b> marbles did your opponent report drawing? ",
            "catchKey": -1,
            "catchResponse": -1,
            "catchTime": 1642478688711,
            "trialTime": 0
        },
        {
            "exptPart": "trial",
            "trialNumber": 54,
            "roleCurrent": "sender",
            "marblesSampled": 100,
            "probRed": 0.5,
            "lambda": 5,
            "drawnRed": 85,
            "reportedRed": 95,
            "inferredRed": 92,
            "playerTrialScore": 7,
            "oppTrialScore": -7,
            "playerTotalScore": -137,
            "oppTotalScore": -46,
            "waitTime": 2792.6929796440445,
            "responseTime": 1642478741685,
            "catchQuestion": "How many <b class=\"r\">red<\/b> marbles did your opponent report drawing? ",
            "catchKey": -1,
            "catchResponse": -1,
            "catchTime": 1642478688711,
            "trialTime": 0
        },
        {
            "exptPart": "trial",
            "trialNumber": 55,
            "roleCurrent": "receiver",
            "marblesSampled": 100,
            "probRed": 0.5,
            "lambda": 5,
            "drawnRed": 70,
            "reportedRed": 76,
            "inferredRed": 67,
            "playerTrialScore": -3,
            "oppTrialScore": 0,
            "playerTotalScore": -140,
            "oppTotalScore": -46,
            "waitTime": 6756.795082682011,
            "responseTime": 1642478754256,
            "catchQuestion": "How many <b class=\"r\">red<\/b> marbles did your opponent report drawing? ",
            "catchKey": -1,
            "catchResponse": -1,
            "catchTime": 1642478754256,
            "trialTime": 0
        },
        {
            "exptPart": "trial",
            "trialNumber": 56,
            "roleCurrent": "sender",
            "marblesSampled": 100,
            "probRed": 0.5,
            "lambda": 5,
            "drawnRed": 24,
            "reportedRed": 46,
            "inferredRed": 43,
            "playerTrialScore": 19,
            "oppTrialScore": -19,
            "playerTotalScore": -121,
            "oppTotalScore": -65,
            "waitTime": 2360.63243288537,
            "responseTime": 1642478775708,
            "catchQuestion": "How many <b class=\"r\">red<\/b> marbles did your opponent report drawing? ",
            "catchKey": -1,
            "catchResponse": -1,
            "catchTime": 1642478754256,
            "trialTime": 0
        },
        {
            "exptPart": "trial",
            "trialNumber": 57,
            "roleCurrent": "receiver",
            "marblesSampled": 100,
            "probRed": 0.5,
            "lambda": 5,
            "drawnRed": 35,
            "reportedRed": 39,
            "inferredRed": 30,
            "playerTrialScore": -5,
            "oppTrialScore": 0,
            "playerTotalScore": -126,
            "oppTotalScore": -65,
            "waitTime": 5461.5196735552145,
            "responseTime": 1642478791223,
            "catchQuestion": "How many <b class=\"r\">red<\/b> marbles did your opponent report drawing? ",
            "catchKey": -1,
            "catchResponse": -1,
            "catchTime": 1642478754256,
            "trialTime": 0
        },
        {
            "exptPart": "trial",
            "trialNumber": 58,
            "roleCurrent": "sender",
            "marblesSampled": 100,
            "probRed": 0.5,
            "lambda": 5,
            "drawnRed": 31,
            "reportedRed": 59,
            "inferredRed": 54,
            "playerTrialScore": 23,
            "oppTrialScore": -23,
            "playerTotalScore": -103,
            "oppTotalScore": -88,
            "waitTime": 2628.702111821236,
            "responseTime": 1642478816555,
            "catchQuestion": "How many <b class=\"r\">red<\/b> marbles did your opponent report drawing? ",
            "catchKey": -1,
            "catchResponse": -1,
            "catchTime": 1642478754256,
            "trialTime": 0
        },
        {
            "exptPart": "trial",
            "trialNumber": 59,
            "roleCurrent": "receiver",
            "marblesSampled": 100,
            "probRed": 0.5,
            "lambda": 5,
            "drawnRed": 53,
            "reportedRed": 61,
            "inferredRed": 48,
            "playerTrialScore": -5,
            "oppTrialScore": 0,
            "playerTotalScore": -108,
            "oppTotalScore": -88,
            "waitTime": 6755.75370323429,
            "responseTime": 1642478827534,
            "catchQuestion": "How many <b class=\"r\">red<\/b> marbles did your opponent report drawing? ",
            "catchKey": -1,
            "catchResponse": -1,
            "catchTime": 1642478754256,
            "trialTime": 0
        },
        {
            "exptPart": "trial",
            "trialNumber": 60,
            "roleCurrent": "sender",
            "marblesSampled": 100,
            "probRed": 0.5,
            "lambda": 5,
            "drawnRed": 45,
            "reportedRed": 53,
            "inferredRed": 45,
            "playerTrialScore": 0,
            "oppTrialScore": 0,
            "playerTotalScore": -108,
            "oppTotalScore": -88,
            "waitTime": 2169.729400668836,
            "responseTime": 1642478839953,
            "catchQuestion": "How many <b class=\"r\">red<\/b> marbles did your opponent report drawing? ",
            "catchKey": -1,
            "catchResponse": -1,
            "catchTime": 1642478839954,
            "trialTime": 0
        },
        {
            "exptPart": "trial",
            "trialNumber": 61,
            "roleCurrent": "receiver",
            "marblesSampled": 100,
            "probRed": 0.5,
            "lambda": 5,
            "drawnRed": 37,
            "reportedRed": 44,
            "inferredRed": 37,
            "playerTrialScore": 0,
            "oppTrialScore": 0,
            "playerTotalScore": -108,
            "oppTotalScore": -88,
            "waitTime": 7447.305312839232,
            "responseTime": 1642478856411,
            "catchQuestion": "How many <b class=\"r\">red<\/b> marbles did your opponent report drawing? ",
            "catchKey": -1,
            "catchResponse": -1,
            "catchTime": 1642478839954,
            "trialTime": 0
        },
        {
            "exptPart": "trial",
            "trialNumber": 62,
            "roleCurrent": "sender",
            "marblesSampled": 100,
            "probRed": 0.5,
            "lambda": 5,
            "drawnRed": 10,
            "reportedRed": 22,
            "inferredRed": 19,
            "playerTrialScore": 9,
            "oppTrialScore": -9,
            "playerTotalScore": -99,
            "oppTotalScore": -97,
            "waitTime": 2335.288885800347,
            "responseTime": 1642478881084,
            "catchQuestion": "How many <b class=\"r\">red<\/b> marbles did you actually draw (before any changes)? ",
            "catchKey": 10,
            "catchResponse": 12,
            "catchTime": 1642478881084,
            "trialTime": 0
        },
        {
            "exptPart": "trial",
            "trialNumber": 63,
            "roleCurrent": "receiver",
            "marblesSampled": 100,
            "probRed": 0.5,
            "lambda": 5,
            "drawnRed": 77,
            "reportedRed": 81,
            "inferredRed": 68,
            "playerTrialScore": -9,
            "oppTrialScore": 0,
            "playerTotalScore": -108,
            "oppTotalScore": -97,
            "waitTime": 5504.8824226201705,
            "responseTime": 1642478902563,
            "catchQuestion": "How many <b class=\"r\">red<\/b> marbles did you actually draw (before any changes)? ",
            "catchKey": -1,
            "catchResponse": -1,
            "catchTime": 1642478881084,
            "trialTime": 0
        },
        {
            "exptPart": "trial",
            "trialNumber": 64,
            "roleCurrent": "sender",
            "marblesSampled": 100,
            "probRed": 0.5,
            "lambda": 5,
            "drawnRed": 57,
            "reportedRed": 77,
            "inferredRed": 75,
            "playerTrialScore": 18,
            "oppTrialScore": -18,
            "playerTotalScore": -90,
            "oppTotalScore": -115,
            "waitTime": 2242.992806011472,
            "responseTime": 1642478924815,
            "catchQuestion": "How many <b class=\"r\">red<\/b> marbles did you actually draw (before any changes)? ",
            "catchKey": -1,
            "catchResponse": -1,
            "catchTime": 1642478881084,
            "trialTime": 0
        },
        {
            "exptPart": "trial",
            "trialNumber": 65,
            "roleCurrent": "receiver",
            "marblesSampled": 100,
            "probRed": 0.5,
            "lambda": 5,
            "drawnRed": 60,
            "reportedRed": 68,
            "inferredRed": 60,
            "playerTrialScore": 0,
            "oppTrialScore": 0,
            "playerTotalScore": -90,
            "oppTotalScore": -115,
            "waitTime": 5225.733995860495,
            "responseTime": 1642478934230,
            "catchQuestion": "How many <b class=\"r\">red<\/b> marbles did you actually draw (before any changes)? ",
            "catchKey": -1,
            "catchResponse": -1,
            "catchTime": 1642478934230,
            "trialTime": 0
        },
        {
            "exptPart": "trial",
            "trialNumber": 66,
            "roleCurrent": "sender",
            "marblesSampled": 100,
            "probRed": 0.5,
            "lambda": 5,
            "drawnRed": 38,
            "reportedRed": 75,
            "inferredRed": 70,
            "playerTrialScore": 32,
            "oppTrialScore": -32,
            "playerTotalScore": -58,
            "oppTotalScore": -147,
            "waitTime": 3090.273612636327,
            "responseTime": 1642478968806,
            "catchQuestion": "How many <b class=\"r\">red<\/b> marbles did you actually draw (before any changes)? ",
            "catchKey": -1,
            "catchResponse": -1,
            "catchTime": 1642478934230,
            "trialTime": 0
        },
        {
            "exptPart": "trial",
            "trialNumber": 67,
            "roleCurrent": "receiver",
            "marblesSampled": 100,
            "probRed": 0.5,
            "lambda": 5,
            "drawnRed": 50,
            "reportedRed": 51,
            "inferredRed": 45,
            "playerTrialScore": -5,
            "oppTrialScore": 0,
            "playerTotalScore": -63,
            "oppTotalScore": -147,
            "waitTime": 6031.297325777361,
            "responseTime": 1642478979504,
            "catchQuestion": "How many <b class=\"r\">red<\/b> marbles did you actually draw (before any changes)? ",
            "catchKey": -1,
            "catchResponse": -1,
            "catchTime": 1642478934230,
            "trialTime": 0
        },
        {
            "exptPart": "trial",
            "trialNumber": 68,
            "roleCurrent": "sender",
            "marblesSampled": 100,
            "probRed": 0.5,
            "lambda": 5,
            "drawnRed": 63,
            "reportedRed": 72,
            "inferredRed": 68,
            "playerTrialScore": 5,
            "oppTrialScore": -5,
            "playerTotalScore": -58,
            "oppTotalScore": -152,
            "waitTime": 3209.335200542314,
            "responseTime": 1642479007061,
            "catchQuestion": "How many <b class=\"r\">red<\/b> marbles did you actually draw (before any changes)? ",
            "catchKey": -1,
            "catchResponse": -1,
            "catchTime": 1642478934230,
            "trialTime": 0
        },
        {
            "exptPart": "trial",
            "trialNumber": 69,
            "roleCurrent": "receiver",
            "marblesSampled": 100,
            "probRed": 0.5,
            "lambda": 5,
            "drawnRed": 34,
            "reportedRed": 40,
            "inferredRed": 33,
            "playerTrialScore": -1,
            "oppTrialScore": 0,
            "playerTotalScore": -59,
            "oppTotalScore": -152,
            "waitTime": 5908.421949172376,
            "responseTime": 1642479021794,
            "catchQuestion": "How many <b class=\"r\">red<\/b> marbles did you actually draw (before any changes)? ",
            "catchKey": -1,
            "catchResponse": -1,
            "catchTime": 1642478934230,
            "trialTime": 0
        },
        {
            "exptPart": "trial",
            "trialNumber": 70,
            "roleCurrent": "sender",
            "marblesSampled": 100,
            "probRed": 0.5,
            "lambda": 5,
            "drawnRed": 80,
            "reportedRed": 87,
            "inferredRed": 85,
            "playerTrialScore": 5,
            "oppTrialScore": -5,
            "playerTotalScore": -54,
            "oppTotalScore": -157,
            "waitTime": 2370.1482094846424,
            "responseTime": 1642479041071,
            "catchQuestion": "How many <b class=\"r\">red<\/b> marbles did you actually draw (before any changes)? ",
            "catchKey": -1,
            "catchResponse": -1,
            "catchTime": 1642479041071,
            "trialTime": 0
        },
        {
            "exptPart": "trial",
            "trialNumber": 71,
            "roleCurrent": "receiver",
            "marblesSampled": 100,
            "probRed": 0.5,
            "lambda": 5,
            "drawnRed": 62,
            "reportedRed": 67,
            "inferredRed": 59,
            "playerTrialScore": -3,
            "oppTrialScore": 0,
            "playerTotalScore": -57,
            "oppTotalScore": -157,
            "waitTime": 5324.623918033038,
            "responseTime": 1642479054177,
            "catchQuestion": "How many <b class=\"r\">red<\/b> marbles did you actually draw (before any changes)? ",
            "catchKey": -1,
            "catchResponse": -1,
            "catchTime": 1642479041071,
            "trialTime": 0
        },
        {
            "exptPart": "trial",
            "trialNumber": 72,
            "roleCurrent": "sender",
            "marblesSampled": 100,
            "probRed": 0.5,
            "lambda": 5,
            "drawnRed": 54,
            "reportedRed": 70,
            "inferredRed": 64,
            "playerTrialScore": 10,
            "oppTrialScore": -10,
            "playerTotalScore": -47,
            "oppTotalScore": -167,
            "waitTime": 2639.80611720089,
            "responseTime": 1642479080135,
            "catchQuestion": "How many <b class=\"r\">red<\/b> marbles did you actually draw (before any changes)? ",
            "catchKey": -1,
            "catchResponse": -1,
            "catchTime": 1642479041071,
            "trialTime": 0
        },
        {
            "exptPart": "trial",
            "trialNumber": 73,
            "roleCurrent": "receiver",
            "marblesSampled": 100,
            "probRed": 0.5,
            "lambda": 5,
            "drawnRed": 17,
            "reportedRed": 20,
            "inferredRed": 15,
            "playerTrialScore": -2,
            "oppTrialScore": 0,
            "playerTotalScore": -49,
            "oppTotalScore": -167,
            "waitTime": 5844.732587849008,
            "responseTime": 1642479096986,
            "catchQuestion": "How many <b class=\"r\">red<\/b> marbles did your opponent report drawing? ",
            "catchKey": 20,
            "catchResponse": 20,
            "catchTime": 1642479096986,
            "trialTime": 0
        },
        {
            "exptPart": "trial",
            "trialNumber": 74,
            "roleCurrent": "sender",
            "marblesSampled": 100,
            "probRed": 0.5,
            "lambda": 5,
            "drawnRed": 72,
            "reportedRed": 78,
            "inferredRed": 72,
            "playerTrialScore": 0,
            "oppTrialScore": 0,
            "playerTotalScore": -49,
            "oppTotalScore": -167,
            "waitTime": 2564.0001625801865,
            "responseTime": 1642479118550,
            "catchQuestion": "How many <b class=\"r\">red<\/b> marbles did your opponent report drawing? ",
            "catchKey": -1,
            "catchResponse": -1,
            "catchTime": 1642479096986,
            "trialTime": 0
        },
        {
            "exptPart": "trial",
            "trialNumber": 75,
            "roleCurrent": "receiver",
            "marblesSampled": 100,
            "probRed": 0.5,
            "lambda": 5,
            "drawnRed": 63,
            "reportedRed": 67,
            "inferredRed": 60,
            "playerTrialScore": -3,
            "oppTrialScore": 0,
            "playerTotalScore": -52,
            "oppTotalScore": -167,
            "waitTime": 5865.62632669623,
            "responseTime": 1642479133219,
            "catchQuestion": "How many <b class=\"r\">red<\/b> marbles did your opponent report drawing? ",
            "catchKey": -1,
            "catchResponse": -1,
            "catchTime": 1642479133219,
            "trialTime": 0
        },
        {
            "exptPart": "trial",
            "trialNumber": 76,
            "roleCurrent": "sender",
            "marblesSampled": 100,
            "probRed": 0.5,
            "lambda": 5,
            "drawnRed": 60,
            "reportedRed": 80,
            "inferredRed": 73,
            "playerTrialScore": 13,
            "oppTrialScore": -13,
            "playerTotalScore": -39,
            "oppTotalScore": -180,
            "waitTime": 2443.271619599714,
            "responseTime": 1642479159535,
            "catchQuestion": "How many <b class=\"r\">red<\/b> marbles did your opponent report drawing? ",
            "catchKey": -1,
            "catchResponse": -1,
            "catchTime": 1642479133219,
            "trialTime": 0
        },
        {
            "exptPart": "trial",
            "trialNumber": 77,
            "roleCurrent": "receiver",
            "marblesSampled": 100,
            "probRed": 0.5,
            "lambda": 5,
            "drawnRed": 51,
            "reportedRed": 54,
            "inferredRed": 49,
            "playerTrialScore": -2,
            "oppTrialScore": 0,
            "playerTotalScore": -41,
            "oppTotalScore": -180,
            "waitTime": 6253.424110931145,
            "responseTime": 1642479174989,
            "catchQuestion": "How many <b class=\"r\">red<\/b> marbles did your opponent report drawing? ",
            "catchKey": -1,
            "catchResponse": -1,
            "catchTime": 1642479133219,
            "trialTime": 0
        },
        {
            "exptPart": "trial",
            "trialNumber": 78,
            "roleCurrent": "sender",
            "marblesSampled": 100,
            "probRed": 0.5,
            "lambda": 5,
            "drawnRed": 28,
            "reportedRed": 67,
            "inferredRed": 63,
            "playerTrialScore": 35,
            "oppTrialScore": -35,
            "playerTotalScore": -6,
            "oppTotalScore": -215,
            "waitTime": 2931.8700383259966,
            "responseTime": 1642479207720,
            "catchQuestion": "How many <b class=\"r\">red<\/b> marbles did you actually draw (before any changes)? ",
            "catchKey": 28,
            "catchResponse": 28,
            "catchTime": 1642479207720,
            "trialTime": 0
        },
        {
            "exptPart": "trial",
            "trialNumber": 79,
            "roleCurrent": "receiver",
            "marblesSampled": 100,
            "probRed": 0.5,
            "lambda": 5,
            "drawnRed": 79,
            "reportedRed": 83,
            "inferredRed": 65,
            "playerTrialScore": -14,
            "oppTrialScore": 0,
            "playerTotalScore": -20,
            "oppTotalScore": -215,
            "waitTime": 5559.974813221457,
            "responseTime": 1642479222517,
            "catchQuestion": "How many <b class=\"r\">red<\/b> marbles did you actually draw (before any changes)? ",
            "catchKey": -1,
            "catchResponse": -1,
            "catchTime": 1642479207720,
            "trialTime": 0
        },
        {
            "exptPart": "trial",
            "trialNumber": 80,
            "roleCurrent": "sender",
            "marblesSampled": 100,
            "probRed": 0.5,
            "lambda": 5,
            "drawnRed": 33,
            "reportedRed": 54,
            "inferredRed": 49,
            "playerTrialScore": 16,
            "oppTrialScore": -16,
            "playerTotalScore": -4,
            "oppTotalScore": -231,
            "waitTime": 2962.3589950503147,
            "responseTime": 1642479247196,
            "catchQuestion": "How many <b class=\"r\">red<\/b> marbles did you actually draw (before any changes)? ",
            "catchKey": -1,
            "catchResponse": -1,
            "catchTime": 1642479247196,
            "trialTime": 0
        },
        {
            "exptPart": "trial",
            "trialNumber": 81,
            "roleCurrent": "receiver",
            "marblesSampled": 100,
            "probRed": 0.5,
            "lambda": 5,
            "drawnRed": 44,
            "reportedRed": 49,
            "inferredRed": 39,
            "playerTrialScore": -5,
            "oppTrialScore": 0,
            "playerTotalScore": -9,
            "oppTotalScore": -231,
            "waitTime": 5615.837579594891,
            "responseTime": 1642479265257,
            "catchQuestion": "How many <b class=\"r\">red<\/b> marbles did you actually draw (before any changes)? ",
            "catchKey": -1,
            "catchResponse": -1,
            "catchTime": 1642479247196,
            "trialTime": 0
        },
        {
            "exptPart": "trial",
            "trialNumber": 82,
            "roleCurrent": "sender",
            "marblesSampled": 100,
            "probRed": 0.5,
            "lambda": 5,
            "drawnRed": 59,
            "reportedRed": 73,
            "inferredRed": 64,
            "playerTrialScore": 5,
            "oppTrialScore": -5,
            "playerTotalScore": -4,
            "oppTotalScore": -236,
            "waitTime": 2836.1732844133076,
            "responseTime": 1642479289475,
            "catchQuestion": "How many <b class=\"r\">red<\/b> marbles did you actually draw (before any changes)? ",
            "catchKey": -1,
            "catchResponse": -1,
            "catchTime": 1642479247196,
            "trialTime": 0
        },
        {
            "exptPart": "trial",
            "trialNumber": 83,
            "roleCurrent": "receiver",
            "marblesSampled": 100,
            "probRed": 0.5,
            "lambda": 5,
            "drawnRed": 62,
            "reportedRed": 63,
            "inferredRed": 53,
            "playerTrialScore": -9,
            "oppTrialScore": 0,
            "playerTotalScore": -13,
            "oppTotalScore": -236,
            "waitTime": 5267.290835620806,
            "responseTime": 1642479302480,
            "catchQuestion": "How many <b class=\"r\">red<\/b> marbles did you actually draw (before any changes)? ",
            "catchKey": -1,
            "catchResponse": -1,
            "catchTime": 1642479247196,
            "trialTime": 0
        },
        {
            "exptPart": "trial",
            "trialNumber": 84,
            "roleCurrent": "sender",
            "marblesSampled": 100,
            "probRed": 0.5,
            "lambda": 5,
            "drawnRed": 52,
            "reportedRed": 73,
            "inferredRed": 69,
            "playerTrialScore": 17,
            "oppTrialScore": -17,
            "playerTotalScore": 4,
            "oppTotalScore": -253,
            "waitTime": 2935.587097985843,
            "responseTime": 1642479326914,
            "catchQuestion": "How many <b class=\"r\">red<\/b> marbles did you actually draw (before any changes)? ",
            "catchKey": -1,
            "catchResponse": -1,
            "catchTime": 1642479247196,
            "trialTime": 0
        },
        {
            "exptPart": "trial",
            "trialNumber": 85,
            "roleCurrent": "receiver",
            "marblesSampled": 100,
            "probRed": 0.5,
            "lambda": 5,
            "drawnRed": 67,
            "reportedRed": 79,
            "inferredRed": 65,
            "playerTrialScore": -2,
            "oppTrialScore": 0,
            "playerTotalScore": 2,
            "oppTotalScore": -253,
            "waitTime": 5168.703327424699,
            "responseTime": 1642479336542,
            "catchQuestion": "How many <b class=\"r\">red<\/b> marbles did your opponent report drawing? ",
            "catchKey": 79,
            "catchResponse": 79,
            "catchTime": 1642479336542,
            "trialTime": 0
        },
        {
            "exptPart": "trial",
            "trialNumber": 86,
            "roleCurrent": "sender",
            "marblesSampled": 100,
            "probRed": 0.5,
            "lambda": 5,
            "drawnRed": 43,
            "reportedRed": 77,
            "inferredRed": 73,
            "playerTrialScore": 30,
            "oppTrialScore": -30,
            "playerTotalScore": 32,
            "oppTotalScore": -283,
            "waitTime": 2174.252354387644,
            "responseTime": 1642479372248,
            "catchQuestion": "How many <b class=\"r\">red<\/b> marbles did your opponent report drawing? ",
            "catchKey": -1,
            "catchResponse": -1,
            "catchTime": 1642479336542,
            "trialTime": 0
        },
        {
            "exptPart": "trial",
            "trialNumber": 87,
            "roleCurrent": "receiver",
            "marblesSampled": 100,
            "probRed": 0.5,
            "lambda": 5,
            "drawnRed": 79,
            "reportedRed": 83,
            "inferredRed": 68,
            "playerTrialScore": -11,
            "oppTrialScore": 0,
            "playerTotalScore": 21,
            "oppTotalScore": -283,
            "waitTime": 6466.082157315739,
            "responseTime": 1642479386146,
            "catchQuestion": "How many <b class=\"r\">red<\/b> marbles did your opponent report drawing? ",
            "catchKey": 83,
            "catchResponse": 83,
            "catchTime": 1642479386146,
            "trialTime": 0
        },
        {
            "exptPart": "trial",
            "trialNumber": 88,
            "roleCurrent": "sender",
            "marblesSampled": 100,
            "probRed": 0.5,
            "lambda": 5,
            "drawnRed": 64,
            "reportedRed": 83,
            "inferredRed": 77,
            "playerTrialScore": 13,
            "oppTrialScore": -13,
            "playerTotalScore": 34,
            "oppTotalScore": -296,
            "waitTime": 2955.4933401404105,
            "responseTime": 1642479416536,
            "catchQuestion": "How many <b class=\"r\">red<\/b> marbles did your opponent report drawing? ",
            "catchKey": -1,
            "catchResponse": -1,
            "catchTime": 1642479386146,
            "trialTime": 0
        },
        {
            "exptPart": "trial",
            "trialNumber": 89,
            "roleCurrent": "receiver",
            "marblesSampled": 100,
            "probRed": 0.5,
            "lambda": 5,
            "drawnRed": 16,
            "reportedRed": 19,
            "inferredRed": 12,
            "playerTrialScore": -4,
            "oppTrialScore": 0,
            "playerTotalScore": 30,
            "oppTotalScore": -296,
            "waitTime": 5287.8738987897605,
            "responseTime": 1642479426781,
            "catchQuestion": "How many <b class=\"r\">red<\/b> marbles did your opponent report drawing? ",
            "catchKey": -1,
            "catchResponse": -1,
            "catchTime": 1642479386146,
            "trialTime": 0
        },
        {
            "exptPart": "trial",
            "trialNumber": 90,
            "roleCurrent": "sender",
            "marblesSampled": 100,
            "probRed": 0.5,
            "lambda": 5,
            "drawnRed": 65,
            "reportedRed": 87,
            "inferredRed": 83,
            "playerTrialScore": 18,
            "oppTrialScore": -18,
            "playerTotalScore": 48,
            "oppTotalScore": -314,
            "waitTime": 2524.5113608103584,
            "responseTime": 1642479454877,
            "catchQuestion": "How many <b class=\"r\">red<\/b> marbles did your opponent report drawing? ",
            "catchKey": -1,
            "catchResponse": -1,
            "catchTime": 1642479454877,
            "trialTime": 0
        },
        {
            "exptPart": "trial",
            "trialNumber": 91,
            "roleCurrent": "receiver",
            "marblesSampled": 100,
            "probRed": 0.5,
            "lambda": 5,
            "drawnRed": 26,
            "reportedRed": 31,
            "inferredRed": 24,
            "playerTrialScore": -2,
            "oppTrialScore": 0,
            "playerTotalScore": 46,
            "oppTotalScore": -314,
            "waitTime": 5533.051843745803,
            "responseTime": 1642479468059,
            "catchQuestion": "How many <b class=\"r\">red<\/b> marbles did your opponent report drawing? ",
            "catchKey": -1,
            "catchResponse": -1,
            "catchTime": 1642479454877,
            "trialTime": 0
        },
        {
            "exptPart": "trial",
            "trialNumber": 92,
            "roleCurrent": "sender",
            "marblesSampled": 100,
            "probRed": 0.5,
            "lambda": 5,
            "drawnRed": 41,
            "reportedRed": 73,
            "inferredRed": 65,
            "playerTrialScore": 24,
            "oppTrialScore": -24,
            "playerTotalScore": 70,
            "oppTotalScore": -338,
            "waitTime": 2839.6757395218956,
            "responseTime": 1642479502309,
            "catchQuestion": "How many <b class=\"r\">red<\/b> marbles did your opponent report drawing? ",
            "catchKey": -1,
            "catchResponse": -1,
            "catchTime": 1642479454877,
            "trialTime": 0
        },
        {
            "exptPart": "trial",
            "trialNumber": 93,
            "roleCurrent": "receiver",
            "marblesSampled": 100,
            "probRed": 0.5,
            "lambda": 5,
            "drawnRed": 87,
            "reportedRed": 92,
            "inferredRed": 73,
            "playerTrialScore": -14,
            "oppTrialScore": 0,
            "playerTotalScore": 56,
            "oppTotalScore": -338,
            "waitTime": 5155.047340146206,
            "responseTime": 1642479513984,
            "catchQuestion": "How many <b class=\"r\">red<\/b> marbles did your opponent report drawing? ",
            "catchKey": -1,
            "catchResponse": -1,
            "catchTime": 1642479454877,
            "trialTime": 0
        },
        {
            "exptPart": "trial",
            "trialNumber": 94,
            "roleCurrent": "sender",
            "marblesSampled": 100,
            "probRed": 0.5,
            "lambda": 5,
            "drawnRed": 65,
            "reportedRed": 82,
            "inferredRed": 77,
            "playerTrialScore": 12,
            "oppTrialScore": -12,
            "playerTotalScore": 68,
            "oppTotalScore": -350,
            "waitTime": 2895.501190340011,
            "responseTime": 1642479536393,
            "catchQuestion": "How many <b class=\"r\">red<\/b> marbles did your opponent report drawing? ",
            "catchKey": -1,
            "catchResponse": -1,
            "catchTime": 1642479454877,
            "trialTime": 0
        },
        {
            "exptPart": "trial",
            "trialNumber": 95,
            "roleCurrent": "receiver",
            "marblesSampled": 100,
            "probRed": 0.5,
            "lambda": 5,
            "drawnRed": 63,
            "reportedRed": 69,
            "inferredRed": 55,
            "playerTrialScore": -8,
            "oppTrialScore": 0,
            "playerTotalScore": 60,
            "oppTotalScore": -350,
            "waitTime": 5499.760424662447,
            "responseTime": 1642479546454,
            "catchQuestion": "How many <b class=\"r\">red<\/b> marbles did your opponent report drawing? ",
            "catchKey": -1,
            "catchResponse": -1,
            "catchTime": 1642479546454,
            "trialTime": 0
        },
        {
            "exptPart": "trial",
            "trialNumber": 96,
            "roleCurrent": "sender",
            "marblesSampled": 100,
            "probRed": 0.5,
            "lambda": 5,
            "drawnRed": 52,
            "reportedRed": 73,
            "inferredRed": 68,
            "playerTrialScore": 16,
            "oppTrialScore": -16,
            "playerTotalScore": 76,
            "oppTotalScore": -366,
            "waitTime": 2389.4881197728027,
            "responseTime": 1642479574482,
            "catchQuestion": "How many <b class=\"r\">red<\/b> marbles did your opponent report drawing? ",
            "catchKey": -1,
            "catchResponse": -1,
            "catchTime": 1642479546454,
            "trialTime": 0
        },
        {
            "exptPart": "trial",
            "trialNumber": 97,
            "roleCurrent": "receiver",
            "marblesSampled": 100,
            "probRed": 0.5,
            "lambda": 5,
            "drawnRed": 40,
            "reportedRed": 47,
            "inferredRed": 32,
            "playerTrialScore": -8,
            "oppTrialScore": 0,
            "playerTotalScore": 68,
            "oppTotalScore": -366,
            "waitTime": 5727.67931713474,
            "responseTime": 1642479586419,
            "catchQuestion": "How many <b class=\"r\">red<\/b> marbles did your opponent report drawing? ",
            "catchKey": -1,
            "catchResponse": -1,
            "catchTime": 1642479546454,
            "trialTime": 0
        },
        {
            "exptPart": "trial",
            "trialNumber": 98,
            "roleCurrent": "sender",
            "marblesSampled": 100,
            "probRed": 0.5,
            "lambda": 5,
            "drawnRed": 59,
            "reportedRed": 89,
            "inferredRed": 80,
            "playerTrialScore": 21,
            "oppTrialScore": -21,
            "playerTotalScore": 89,
            "oppTotalScore": -387,
            "waitTime": 2572.306405924416,
            "responseTime": 1642479620219,
            "catchQuestion": "How many <b class=\"r\">red<\/b> marbles did your opponent report drawing? ",
            "catchKey": -1,
            "catchResponse": -1,
            "catchTime": 1642479546454,
            "trialTime": 0
        },
        {
            "exptPart": "trial",
            "trialNumber": 99,
            "roleCurrent": "receiver",
            "marblesSampled": 100,
            "probRed": 0.5,
            "lambda": 5,
            "drawnRed": 40,
            "reportedRed": 44,
            "inferredRed": 36,
            "playerTrialScore": -4,
            "oppTrialScore": 0,
            "playerTotalScore": 85,
            "oppTotalScore": -387,
            "waitTime": 5721.7000769552105,
            "responseTime": 1642479632555,
            "catchQuestion": "How many <b class=\"r\">red<\/b> marbles did your opponent report drawing? ",
            "catchKey": -1,
            "catchResponse": -1,
            "catchTime": 1642479546454,
            "trialTime": 0
        },
        {
            "exptPart": "trial",
            "trialNumber": 100,
            "roleCurrent": "sender",
            "marblesSampled": 100,
            "probRed": 0.5,
            "lambda": 5,
            "drawnRed": 67,
            "reportedRed": 86,
            "inferredRed": 80,
            "playerTrialScore": 13,
            "oppTrialScore": -13,
            "playerTotalScore": 98,
            "oppTotalScore": -400,
            "waitTime": 2785.1724777725262,
            "responseTime": 1642479659921,
            "catchQuestion": "How many <b class=\"r\">red<\/b> marbles did your opponent report drawing? ",
            "catchKey": -1,
            "catchResponse": -1,
            "catchTime": 1642479659921,
            "trialTime": 0
        }
    ]
}