{
    "client": {
        "type": "sona",
        "experiment_id": 2228,
        "credit_token": "b315147ae43241ea9c65086cb510cfb7",
        "survey_code": "39092",
        "sid": "sona-39092",
        "window": {
            "width": 1440,
            "height": 788
        },
        "screen": {
            "width": 1440,
            "height": 900
        },
        "userAgent": "Mozilla\/5.0 (Macintosh; Intel Mac OS X 10_15_7) AppleWebKit\/537.36 (KHTML, like Gecko) Chrome\/97.0.4692.71 Safari\/537.36",
        "score": 0,
        "bonus": 0
    },
    "expt": {
        "saveURL": "submit.simple.php",
        "trials": 100,
        "practiceTrials": 2,
        "marblesSampled": 100,
        "probRed": 0.5,
        "lambdaAI": 5,
        "roleFirst": "sender",
        "roles": [
            "sender",
            "receiver"
        ],
        "cost": "linear",
        "goal": "under",
        "catchTrials": [
            85,
            6,
            65,
            39,
            50,
            5,
            3,
            77,
            1,
            97
        ],
        "scoreTotal": {
            "player": -215,
            "opp": -17
        },
        "sona": {
            "experiment_id": 2228,
            "credit_token": "b315147ae43241ea9c65086cb510cfb7"
        },
        "pilot": false,
        "debug": false
    },
    "trials": [
        {
            "exptPart": "practice",
            "trialNumber": 1,
            "roleCurrent": "sender",
            "marblesSampled": 100,
            "probRed": 0.5,
            "lambda": 5,
            "drawnRed": 53,
            "reportedRed": 52,
            "inferredRed": 58,
            "playerTrialScore": 0,
            "oppTrialScore": -5,
            "playerTotalScore": 0,
            "oppTotalScore": -5,
            "waitTime": 2164.4770235641145,
            "responseTime": 1642293373663,
            "catchQuestion": "How many <b class=\"r\">red<\/b> marbles did you actually draw (before any changes)? ",
            "catchKey": 53,
            "catchResponse": 53,
            "catchTime": 1642293373664,
            "trialTime": 0
        },
        {
            "exptPart": "practice",
            "trialNumber": 2,
            "roleCurrent": "receiver",
            "marblesSampled": 100,
            "probRed": 0.5,
            "lambda": 5,
            "drawnRed": 45,
            "reportedRed": 42,
            "inferredRed": 45,
            "playerTrialScore": 0,
            "oppTrialScore": 0,
            "playerTotalScore": 0,
            "oppTotalScore": -5,
            "waitTime": 6821.852354765714,
            "responseTime": 1642293440526,
            "catchQuestion": "How many <b class=\"r\">red<\/b> marbles did your opponent report drawing? ",
            "catchKey": 42,
            "catchResponse": 42,
            "catchTime": 1642293440526,
            "trialTime": 0
        },
        {
            "exptPart": "trial",
            "trialNumber": 1,
            "roleCurrent": "sender",
            "marblesSampled": 100,
            "probRed": 0.5,
            "lambda": 5,
            "drawnRed": 79,
            "reportedRed": 76,
            "inferredRed": 82,
            "playerTrialScore": 0,
            "oppTrialScore": -3,
            "playerTotalScore": 0,
            "oppTotalScore": -3,
            "waitTime": 3044.2197911339044,
            "responseTime": 1642293490095,
            "catchQuestion": "How many <b class=\"r\">red<\/b> marbles did your opponent report drawing? ",
            "catchKey": -1,
            "catchResponse": -1,
            "catchTime": 1642293440526,
            "trialTime": 0
        },
        {
            "exptPart": "trial",
            "trialNumber": 2,
            "roleCurrent": "receiver",
            "marblesSampled": 100,
            "probRed": 0.5,
            "lambda": 5,
            "drawnRed": 49,
            "reportedRed": 47,
            "inferredRed": 43,
            "playerTrialScore": -6,
            "oppTrialScore": 6,
            "playerTotalScore": -6,
            "oppTotalScore": 3,
            "waitTime": 5238.293661650518,
            "responseTime": 1642293511761,
            "catchQuestion": "How many <b class=\"r\">red<\/b> marbles did your opponent report drawing? ",
            "catchKey": 47,
            "catchResponse": 47,
            "catchTime": 1642293511761,
            "trialTime": 0
        },
        {
            "exptPart": "trial",
            "trialNumber": 3,
            "roleCurrent": "sender",
            "marblesSampled": 100,
            "probRed": 0.5,
            "lambda": 5,
            "drawnRed": 32,
            "reportedRed": 35,
            "inferredRed": 39,
            "playerTrialScore": 0,
            "oppTrialScore": -7,
            "playerTotalScore": -6,
            "oppTotalScore": -4,
            "waitTime": 2493.589523602721,
            "responseTime": 1642293564083,
            "catchQuestion": "How many <b class=\"r\">red<\/b> marbles did your opponent report drawing? ",
            "catchKey": -1,
            "catchResponse": -1,
            "catchTime": 1642293511761,
            "trialTime": 0
        },
        {
            "exptPart": "trial",
            "trialNumber": 4,
            "roleCurrent": "receiver",
            "marblesSampled": 100,
            "probRed": 0.5,
            "lambda": 5,
            "drawnRed": 62,
            "reportedRed": 58,
            "inferredRed": 54,
            "playerTrialScore": -8,
            "oppTrialScore": 8,
            "playerTotalScore": -14,
            "oppTotalScore": 4,
            "waitTime": 7424.951959490912,
            "responseTime": 1642293594272,
            "catchQuestion": "How many <b class=\"r\">red<\/b> marbles did your opponent report drawing? ",
            "catchKey": 58,
            "catchResponse": 58,
            "catchTime": 1642293594272,
            "trialTime": 0
        },
        {
            "exptPart": "trial",
            "trialNumber": 5,
            "roleCurrent": "sender",
            "marblesSampled": 100,
            "probRed": 0.5,
            "lambda": 5,
            "drawnRed": 61,
            "reportedRed": 58,
            "inferredRed": 62,
            "playerTrialScore": 0,
            "oppTrialScore": -1,
            "playerTotalScore": -14,
            "oppTotalScore": 3,
            "waitTime": 2670.991715199204,
            "responseTime": 1642293628766,
            "catchQuestion": "How many <b class=\"r\">red<\/b> marbles did your opponent report drawing? ",
            "catchKey": -1,
            "catchResponse": -1,
            "catchTime": 1642293628766,
            "trialTime": 0
        },
        {
            "exptPart": "trial",
            "trialNumber": 6,
            "roleCurrent": "receiver",
            "marblesSampled": 100,
            "probRed": 0.5,
            "lambda": 5,
            "drawnRed": 90,
            "reportedRed": 84,
            "inferredRed": 75,
            "playerTrialScore": -15,
            "oppTrialScore": 15,
            "playerTotalScore": -29,
            "oppTotalScore": 18,
            "waitTime": 6154.503203695313,
            "responseTime": 1642293666437,
            "catchQuestion": "How many <b class=\"r\">red<\/b> marbles did your opponent report drawing? ",
            "catchKey": 84,
            "catchResponse": 84,
            "catchTime": 1642293666437,
            "trialTime": 0
        },
        {
            "exptPart": "trial",
            "trialNumber": 7,
            "roleCurrent": "sender",
            "marblesSampled": 100,
            "probRed": 0.5,
            "lambda": 5,
            "drawnRed": 22,
            "reportedRed": 19,
            "inferredRed": 24,
            "playerTrialScore": 0,
            "oppTrialScore": -2,
            "playerTotalScore": -29,
            "oppTotalScore": 16,
            "waitTime": 2602.425458128638,
            "responseTime": 1642293709764,
            "catchQuestion": "How many <b class=\"r\">red<\/b> marbles did you actually draw (before any changes)? ",
            "catchKey": 22,
            "catchResponse": 22,
            "catchTime": 1642293709764,
            "trialTime": 0
        },
        {
            "exptPart": "trial",
            "trialNumber": 8,
            "roleCurrent": "receiver",
            "marblesSampled": 100,
            "probRed": 0.5,
            "lambda": 5,
            "drawnRed": 98,
            "reportedRed": 95,
            "inferredRed": 91,
            "playerTrialScore": -7,
            "oppTrialScore": 7,
            "playerTotalScore": -36,
            "oppTotalScore": 23,
            "waitTime": 5821.704069658789,
            "responseTime": 1642293763670,
            "catchQuestion": "How many <b class=\"r\">red<\/b> marbles did you actually draw (before any changes)? ",
            "catchKey": -1,
            "catchResponse": -1,
            "catchTime": 1642293709764,
            "trialTime": 0
        },
        {
            "exptPart": "trial",
            "trialNumber": 9,
            "roleCurrent": "sender",
            "marblesSampled": 100,
            "probRed": 0.5,
            "lambda": 5,
            "drawnRed": 66,
            "reportedRed": 62,
            "inferredRed": 66,
            "playerTrialScore": 0,
            "oppTrialScore": 0,
            "playerTotalScore": -36,
            "oppTotalScore": 23,
            "waitTime": 2726.406059103671,
            "responseTime": 1642293798512,
            "catchQuestion": "How many <b class=\"r\">red<\/b> marbles did you actually draw (before any changes)? ",
            "catchKey": -1,
            "catchResponse": -1,
            "catchTime": 1642293709764,
            "trialTime": 0
        },
        {
            "exptPart": "trial",
            "trialNumber": 10,
            "roleCurrent": "receiver",
            "marblesSampled": 100,
            "probRed": 0.5,
            "lambda": 5,
            "drawnRed": 54,
            "reportedRed": 50,
            "inferredRed": 46,
            "playerTrialScore": -8,
            "oppTrialScore": 8,
            "playerTotalScore": -44,
            "oppTotalScore": 31,
            "waitTime": 6869.487348143565,
            "responseTime": 1642293824852,
            "catchQuestion": "How many <b class=\"r\">red<\/b> marbles did you actually draw (before any changes)? ",
            "catchKey": -1,
            "catchResponse": -1,
            "catchTime": 1642293824852,
            "trialTime": 0
        },
        {
            "exptPart": "trial",
            "trialNumber": 11,
            "roleCurrent": "sender",
            "marblesSampled": 100,
            "probRed": 0.5,
            "lambda": 5,
            "drawnRed": 27,
            "reportedRed": 30,
            "inferredRed": 40,
            "playerTrialScore": 0,
            "oppTrialScore": -13,
            "playerTotalScore": -44,
            "oppTotalScore": 18,
            "waitTime": 3141.680598433313,
            "responseTime": 1642293864719,
            "catchQuestion": "How many <b class=\"r\">red<\/b> marbles did you actually draw (before any changes)? ",
            "catchKey": -1,
            "catchResponse": -1,
            "catchTime": 1642293824852,
            "trialTime": 0
        },
        {
            "exptPart": "trial",
            "trialNumber": 12,
            "roleCurrent": "receiver",
            "marblesSampled": 100,
            "probRed": 0.5,
            "lambda": 5,
            "drawnRed": 33,
            "reportedRed": 29,
            "inferredRed": 27,
            "playerTrialScore": -6,
            "oppTrialScore": 6,
            "playerTotalScore": -50,
            "oppTotalScore": 24,
            "waitTime": 6427.199149857803,
            "responseTime": 1642293881916,
            "catchQuestion": "How many <b class=\"r\">red<\/b> marbles did you actually draw (before any changes)? ",
            "catchKey": -1,
            "catchResponse": -1,
            "catchTime": 1642293824852,
            "trialTime": 0
        },
        {
            "exptPart": "trial",
            "trialNumber": 13,
            "roleCurrent": "sender",
            "marblesSampled": 100,
            "probRed": 0.5,
            "lambda": 5,
            "drawnRed": 35,
            "reportedRed": 41,
            "inferredRed": 47,
            "playerTrialScore": 0,
            "oppTrialScore": -12,
            "playerTotalScore": -50,
            "oppTotalScore": 12,
            "waitTime": 2552.48102165577,
            "responseTime": 1642293918773,
            "catchQuestion": "How many <b class=\"r\">red<\/b> marbles did you actually draw (before any changes)? ",
            "catchKey": -1,
            "catchResponse": -1,
            "catchTime": 1642293824852,
            "trialTime": 0
        },
        {
            "exptPart": "trial",
            "trialNumber": 14,
            "roleCurrent": "receiver",
            "marblesSampled": 100,
            "probRed": 0.5,
            "lambda": 5,
            "drawnRed": 30,
            "reportedRed": 27,
            "inferredRed": 25,
            "playerTrialScore": -5,
            "oppTrialScore": 5,
            "playerTotalScore": -55,
            "oppTotalScore": 17,
            "waitTime": 7177.4006258696145,
            "responseTime": 1642293940514,
            "catchQuestion": "How many <b class=\"r\">red<\/b> marbles did you actually draw (before any changes)? ",
            "catchKey": -1,
            "catchResponse": -1,
            "catchTime": 1642293824852,
            "trialTime": 0
        },
        {
            "exptPart": "trial",
            "trialNumber": 15,
            "roleCurrent": "sender",
            "marblesSampled": 100,
            "probRed": 0.5,
            "lambda": 5,
            "drawnRed": 34,
            "reportedRed": 33,
            "inferredRed": 39,
            "playerTrialScore": 0,
            "oppTrialScore": -5,
            "playerTotalScore": -55,
            "oppTotalScore": 12,
            "waitTime": 3235.927113900101,
            "responseTime": 1642293997280,
            "catchQuestion": "How many <b class=\"r\">red<\/b> marbles did you actually draw (before any changes)? ",
            "catchKey": -1,
            "catchResponse": -1,
            "catchTime": 1642293997280,
            "trialTime": 0
        },
        {
            "exptPart": "trial",
            "trialNumber": 16,
            "roleCurrent": "receiver",
            "marblesSampled": 100,
            "probRed": 0.5,
            "lambda": 5,
            "drawnRed": 47,
            "reportedRed": 39,
            "inferredRed": 41,
            "playerTrialScore": -6,
            "oppTrialScore": 6,
            "playerTotalScore": -61,
            "oppTotalScore": 18,
            "waitTime": 5468.915855080788,
            "responseTime": 1642294015747,
            "catchQuestion": "How many <b class=\"r\">red<\/b> marbles did you actually draw (before any changes)? ",
            "catchKey": -1,
            "catchResponse": -1,
            "catchTime": 1642293997280,
            "trialTime": 0
        },
        {
            "exptPart": "trial",
            "trialNumber": 17,
            "roleCurrent": "sender",
            "marblesSampled": 100,
            "probRed": 0.5,
            "lambda": 5,
            "drawnRed": 66,
            "reportedRed": 57,
            "inferredRed": 62,
            "playerTrialScore": 4,
            "oppTrialScore": -4,
            "playerTotalScore": -57,
            "oppTotalScore": 14,
            "waitTime": 2275.7101367673213,
            "responseTime": 1642294058212,
            "catchQuestion": "How many <b class=\"r\">red<\/b> marbles did you actually draw (before any changes)? ",
            "catchKey": -1,
            "catchResponse": -1,
            "catchTime": 1642293997280,
            "trialTime": 0
        },
        {
            "exptPart": "trial",
            "trialNumber": 18,
            "roleCurrent": "receiver",
            "marblesSampled": 100,
            "probRed": 0.5,
            "lambda": 5,
            "drawnRed": 16,
            "reportedRed": 13,
            "inferredRed": 17,
            "playerTrialScore": -1,
            "oppTrialScore": 0,
            "playerTotalScore": -58,
            "oppTotalScore": 14,
            "waitTime": 5821.1447230551485,
            "responseTime": 1642294071800,
            "catchQuestion": "How many <b class=\"r\">red<\/b> marbles did you actually draw (before any changes)? ",
            "catchKey": -1,
            "catchResponse": -1,
            "catchTime": 1642293997280,
            "trialTime": 0
        },
        {
            "exptPart": "trial",
            "trialNumber": 19,
            "roleCurrent": "sender",
            "marblesSampled": 100,
            "probRed": 0.5,
            "lambda": 5,
            "drawnRed": 72,
            "reportedRed": 64,
            "inferredRed": 70,
            "playerTrialScore": 2,
            "oppTrialScore": -2,
            "playerTotalScore": -56,
            "oppTotalScore": 12,
            "waitTime": 2259.8605579017317,
            "responseTime": 1642294125944,
            "catchQuestion": "How many <b class=\"r\">red<\/b> marbles did you actually draw (before any changes)? ",
            "catchKey": -1,
            "catchResponse": -1,
            "catchTime": 1642293997280,
            "trialTime": 0
        },
        {
            "exptPart": "trial",
            "trialNumber": 20,
            "roleCurrent": "receiver",
            "marblesSampled": 100,
            "probRed": 0.5,
            "lambda": 5,
            "drawnRed": 25,
            "reportedRed": 20,
            "inferredRed": 23,
            "playerTrialScore": -2,
            "oppTrialScore": 2,
            "playerTotalScore": -58,
            "oppTotalScore": 14,
            "waitTime": 7304.182927482583,
            "responseTime": 1642294146929,
            "catchQuestion": "How many <b class=\"r\">red<\/b> marbles did you actually draw (before any changes)? ",
            "catchKey": -1,
            "catchResponse": -1,
            "catchTime": 1642294146929,
            "trialTime": 0
        },
        {
            "exptPart": "trial",
            "trialNumber": 21,
            "roleCurrent": "sender",
            "marblesSampled": 100,
            "probRed": 0.5,
            "lambda": 5,
            "drawnRed": 52,
            "reportedRed": 55,
            "inferredRed": 61,
            "playerTrialScore": 0,
            "oppTrialScore": -9,
            "playerTotalScore": -58,
            "oppTotalScore": 5,
            "waitTime": 2192.658059933008,
            "responseTime": 1642294219610,
            "catchQuestion": "How many <b class=\"r\">red<\/b> marbles did you actually draw (before any changes)? ",
            "catchKey": -1,
            "catchResponse": -1,
            "catchTime": 1642294146929,
            "trialTime": 0
        },
        {
            "exptPart": "trial",
            "trialNumber": 22,
            "roleCurrent": "receiver",
            "marblesSampled": 100,
            "probRed": 0.5,
            "lambda": 5,
            "drawnRed": 29,
            "reportedRed": 21,
            "inferredRed": 18,
            "playerTrialScore": -11,
            "oppTrialScore": 11,
            "playerTotalScore": -69,
            "oppTotalScore": 16,
            "waitTime": 6446.738542909228,
            "responseTime": 1642294238286,
            "catchQuestion": "How many <b class=\"r\">red<\/b> marbles did you actually draw (before any changes)? ",
            "catchKey": -1,
            "catchResponse": -1,
            "catchTime": 1642294146929,
            "trialTime": 0
        },
        {
            "exptPart": "trial",
            "trialNumber": 23,
            "roleCurrent": "sender",
            "marblesSampled": 100,
            "probRed": 0.5,
            "lambda": 5,
            "drawnRed": 34,
            "reportedRed": 41,
            "inferredRed": 42,
            "playerTrialScore": 0,
            "oppTrialScore": -8,
            "playerTotalScore": -69,
            "oppTotalScore": 8,
            "waitTime": 2831.691676657966,
            "responseTime": 1642294273836,
            "catchQuestion": "How many <b class=\"r\">red<\/b> marbles did you actually draw (before any changes)? ",
            "catchKey": -1,
            "catchResponse": -1,
            "catchTime": 1642294146929,
            "trialTime": 0
        },
        {
            "exptPart": "trial",
            "trialNumber": 24,
            "roleCurrent": "receiver",
            "marblesSampled": 100,
            "probRed": 0.5,
            "lambda": 5,
            "drawnRed": 34,
            "reportedRed": 31,
            "inferredRed": 27,
            "playerTrialScore": -7,
            "oppTrialScore": 7,
            "playerTotalScore": -76,
            "oppTotalScore": 15,
            "waitTime": 5464.070755846954,
            "responseTime": 1642294287142,
            "catchQuestion": "How many <b class=\"r\">red<\/b> marbles did you actually draw (before any changes)? ",
            "catchKey": -1,
            "catchResponse": -1,
            "catchTime": 1642294146929,
            "trialTime": 0
        },
        {
            "exptPart": "trial",
            "trialNumber": 25,
            "roleCurrent": "sender",
            "marblesSampled": 100,
            "probRed": 0.5,
            "lambda": 5,
            "drawnRed": 100,
            "reportedRed": 95,
            "inferredRed": 97,
            "playerTrialScore": 3,
            "oppTrialScore": -3,
            "playerTotalScore": -73,
            "oppTotalScore": 12,
            "waitTime": 2569.751724299298,
            "responseTime": 1642294315178,
            "catchQuestion": "How many <b class=\"r\">red<\/b> marbles did you actually draw (before any changes)? ",
            "catchKey": -1,
            "catchResponse": -1,
            "catchTime": 1642294315178,
            "trialTime": 0
        },
        {
            "exptPart": "trial",
            "trialNumber": 26,
            "roleCurrent": "receiver",
            "marblesSampled": 100,
            "probRed": 0.5,
            "lambda": 5,
            "drawnRed": 59,
            "reportedRed": 53,
            "inferredRed": 50,
            "playerTrialScore": -9,
            "oppTrialScore": 9,
            "playerTotalScore": -82,
            "oppTotalScore": 21,
            "waitTime": 5843.676092706704,
            "responseTime": 1642294340759,
            "catchQuestion": "How many <b class=\"r\">red<\/b> marbles did you actually draw (before any changes)? ",
            "catchKey": -1,
            "catchResponse": -1,
            "catchTime": 1642294315178,
            "trialTime": 0
        },
        {
            "exptPart": "trial",
            "trialNumber": 27,
            "roleCurrent": "sender",
            "marblesSampled": 100,
            "probRed": 0.5,
            "lambda": 5,
            "drawnRed": 87,
            "reportedRed": 89,
            "inferredRed": 91,
            "playerTrialScore": 0,
            "oppTrialScore": -4,
            "playerTotalScore": -82,
            "oppTotalScore": 17,
            "waitTime": 3152.3146503681046,
            "responseTime": 1642294355437,
            "catchQuestion": "How many <b class=\"r\">red<\/b> marbles did you actually draw (before any changes)? ",
            "catchKey": -1,
            "catchResponse": -1,
            "catchTime": 1642294315178,
            "trialTime": 0
        },
        {
            "exptPart": "trial",
            "trialNumber": 28,
            "roleCurrent": "receiver",
            "marblesSampled": 100,
            "probRed": 0.5,
            "lambda": 5,
            "drawnRed": 36,
            "reportedRed": 30,
            "inferredRed": 26,
            "playerTrialScore": -10,
            "oppTrialScore": 10,
            "playerTotalScore": -92,
            "oppTotalScore": 27,
            "waitTime": 7294.307366284039,
            "responseTime": 1642294370144,
            "catchQuestion": "How many <b class=\"r\">red<\/b> marbles did you actually draw (before any changes)? ",
            "catchKey": -1,
            "catchResponse": -1,
            "catchTime": 1642294315178,
            "trialTime": 0
        },
        {
            "exptPart": "trial",
            "trialNumber": 29,
            "roleCurrent": "sender",
            "marblesSampled": 100,
            "probRed": 0.5,
            "lambda": 5,
            "drawnRed": 60,
            "reportedRed": 63,
            "inferredRed": 68,
            "playerTrialScore": 0,
            "oppTrialScore": -8,
            "playerTotalScore": -92,
            "oppTotalScore": 19,
            "waitTime": 2588.249474431781,
            "responseTime": 1642294394619,
            "catchQuestion": "How many <b class=\"r\">red<\/b> marbles did you actually draw (before any changes)? ",
            "catchKey": -1,
            "catchResponse": -1,
            "catchTime": 1642294315178,
            "trialTime": 0
        },
        {
            "exptPart": "trial",
            "trialNumber": 30,
            "roleCurrent": "receiver",
            "marblesSampled": 100,
            "probRed": 0.5,
            "lambda": 5,
            "drawnRed": 24,
            "reportedRed": 22,
            "inferredRed": 19,
            "playerTrialScore": -5,
            "oppTrialScore": 5,
            "playerTotalScore": -97,
            "oppTotalScore": 24,
            "waitTime": 5141.921405625948,
            "responseTime": 1642294404597,
            "catchQuestion": "How many <b class=\"r\">red<\/b> marbles did you actually draw (before any changes)? ",
            "catchKey": -1,
            "catchResponse": -1,
            "catchTime": 1642294404597,
            "trialTime": 0
        },
        {
            "exptPart": "trial",
            "trialNumber": 31,
            "roleCurrent": "sender",
            "marblesSampled": 100,
            "probRed": 0.5,
            "lambda": 5,
            "drawnRed": 54,
            "reportedRed": 57,
            "inferredRed": 60,
            "playerTrialScore": 0,
            "oppTrialScore": -6,
            "playerTotalScore": -97,
            "oppTotalScore": 18,
            "waitTime": 2790.7914216505787,
            "responseTime": 1642294436612,
            "catchQuestion": "How many <b class=\"r\">red<\/b> marbles did you actually draw (before any changes)? ",
            "catchKey": -1,
            "catchResponse": -1,
            "catchTime": 1642294404597,
            "trialTime": 0
        },
        {
            "exptPart": "trial",
            "trialNumber": 32,
            "roleCurrent": "receiver",
            "marblesSampled": 100,
            "probRed": 0.5,
            "lambda": 5,
            "drawnRed": 68,
            "reportedRed": 61,
            "inferredRed": 64,
            "playerTrialScore": -4,
            "oppTrialScore": 4,
            "playerTotalScore": -101,
            "oppTotalScore": 22,
            "waitTime": 7473.923742958379,
            "responseTime": 1642294449556,
            "catchQuestion": "How many <b class=\"r\">red<\/b> marbles did you actually draw (before any changes)? ",
            "catchKey": -1,
            "catchResponse": -1,
            "catchTime": 1642294404597,
            "trialTime": 0
        },
        {
            "exptPart": "trial",
            "trialNumber": 33,
            "roleCurrent": "sender",
            "marblesSampled": 100,
            "probRed": 0.5,
            "lambda": 5,
            "drawnRed": 79,
            "reportedRed": 73,
            "inferredRed": 77,
            "playerTrialScore": 2,
            "oppTrialScore": -2,
            "playerTotalScore": -99,
            "oppTotalScore": 20,
            "waitTime": 2338.736299834077,
            "responseTime": 1642294474010,
            "catchQuestion": "How many <b class=\"r\">red<\/b> marbles did you actually draw (before any changes)? ",
            "catchKey": -1,
            "catchResponse": -1,
            "catchTime": 1642294404597,
            "trialTime": 0
        },
        {
            "exptPart": "trial",
            "trialNumber": 34,
            "roleCurrent": "receiver",
            "marblesSampled": 100,
            "probRed": 0.5,
            "lambda": 5,
            "drawnRed": 52,
            "reportedRed": 46,
            "inferredRed": 50,
            "playerTrialScore": -2,
            "oppTrialScore": 2,
            "playerTotalScore": -101,
            "oppTotalScore": 22,
            "waitTime": 7100.909906077653,
            "responseTime": 1642294485384,
            "catchQuestion": "How many <b class=\"r\">red<\/b> marbles did you actually draw (before any changes)? ",
            "catchKey": -1,
            "catchResponse": -1,
            "catchTime": 1642294404597,
            "trialTime": 0
        },
        {
            "exptPart": "trial",
            "trialNumber": 35,
            "roleCurrent": "sender",
            "marblesSampled": 100,
            "probRed": 0.5,
            "lambda": 5,
            "drawnRed": 72,
            "reportedRed": 64,
            "inferredRed": 66,
            "playerTrialScore": 6,
            "oppTrialScore": -6,
            "playerTotalScore": -95,
            "oppTotalScore": 16,
            "waitTime": 2835.626278373844,
            "responseTime": 1642294521078,
            "catchQuestion": "How many <b class=\"r\">red<\/b> marbles did you actually draw (before any changes)? ",
            "catchKey": -1,
            "catchResponse": -1,
            "catchTime": 1642294521078,
            "trialTime": 0
        },
        {
            "exptPart": "trial",
            "trialNumber": 36,
            "roleCurrent": "receiver",
            "marblesSampled": 100,
            "probRed": 0.5,
            "lambda": 5,
            "drawnRed": 55,
            "reportedRed": 54,
            "inferredRed": 58,
            "playerTrialScore": -3,
            "oppTrialScore": 0,
            "playerTotalScore": -98,
            "oppTotalScore": 16,
            "waitTime": 7297.125555312286,
            "responseTime": 1642294543726,
            "catchQuestion": "How many <b class=\"r\">red<\/b> marbles did you actually draw (before any changes)? ",
            "catchKey": -1,
            "catchResponse": -1,
            "catchTime": 1642294521078,
            "trialTime": 0
        },
        {
            "exptPart": "trial",
            "trialNumber": 37,
            "roleCurrent": "sender",
            "marblesSampled": 100,
            "probRed": 0.5,
            "lambda": 5,
            "drawnRed": 87,
            "reportedRed": 79,
            "inferredRed": 84,
            "playerTrialScore": 3,
            "oppTrialScore": -3,
            "playerTotalScore": -95,
            "oppTotalScore": 13,
            "waitTime": 3032.7336431858025,
            "responseTime": 1642294571285,
            "catchQuestion": "How many <b class=\"r\">red<\/b> marbles did you actually draw (before any changes)? ",
            "catchKey": -1,
            "catchResponse": -1,
            "catchTime": 1642294521078,
            "trialTime": 0
        },
        {
            "exptPart": "trial",
            "trialNumber": 38,
            "roleCurrent": "receiver",
            "marblesSampled": 100,
            "probRed": 0.5,
            "lambda": 5,
            "drawnRed": 53,
            "reportedRed": 49,
            "inferredRed": 55,
            "playerTrialScore": -2,
            "oppTrialScore": 0,
            "playerTotalScore": -97,
            "oppTotalScore": 13,
            "waitTime": 7099.802434916686,
            "responseTime": 1642294586703,
            "catchQuestion": "How many <b class=\"r\">red<\/b> marbles did you actually draw (before any changes)? ",
            "catchKey": -1,
            "catchResponse": -1,
            "catchTime": 1642294521078,
            "trialTime": 0
        },
        {
            "exptPart": "trial",
            "trialNumber": 39,
            "roleCurrent": "sender",
            "marblesSampled": 100,
            "probRed": 0.5,
            "lambda": 5,
            "drawnRed": 48,
            "reportedRed": 42,
            "inferredRed": 44,
            "playerTrialScore": 4,
            "oppTrialScore": -4,
            "playerTotalScore": -93,
            "oppTotalScore": 9,
            "waitTime": 2402.50456550275,
            "responseTime": 1642294608292,
            "catchQuestion": "How many <b class=\"r\">red<\/b> marbles did you actually draw (before any changes)? ",
            "catchKey": -1,
            "catchResponse": -1,
            "catchTime": 1642294521078,
            "trialTime": 0
        },
        {
            "exptPart": "trial",
            "trialNumber": 40,
            "roleCurrent": "receiver",
            "marblesSampled": 100,
            "probRed": 0.5,
            "lambda": 5,
            "drawnRed": 79,
            "reportedRed": 74,
            "inferredRed": 76,
            "playerTrialScore": -3,
            "oppTrialScore": 3,
            "playerTotalScore": -96,
            "oppTotalScore": 12,
            "waitTime": 6053.094483751294,
            "responseTime": 1642294620135,
            "catchQuestion": "How many <b class=\"r\">red<\/b> marbles did your opponent report drawing? ",
            "catchKey": 74,
            "catchResponse": 74,
            "catchTime": 1642294620135,
            "trialTime": 0
        },
        {
            "exptPart": "trial",
            "trialNumber": 41,
            "roleCurrent": "sender",
            "marblesSampled": 100,
            "probRed": 0.5,
            "lambda": 5,
            "drawnRed": 40,
            "reportedRed": 36,
            "inferredRed": 42,
            "playerTrialScore": 0,
            "oppTrialScore": -2,
            "playerTotalScore": -96,
            "oppTotalScore": 10,
            "waitTime": 2417.9330829986156,
            "responseTime": 1642294659865,
            "catchQuestion": "How many <b class=\"r\">red<\/b> marbles did your opponent report drawing? ",
            "catchKey": -1,
            "catchResponse": -1,
            "catchTime": 1642294620135,
            "trialTime": 0
        },
        {
            "exptPart": "trial",
            "trialNumber": 42,
            "roleCurrent": "receiver",
            "marblesSampled": 100,
            "probRed": 0.5,
            "lambda": 5,
            "drawnRed": 60,
            "reportedRed": 54,
            "inferredRed": 57,
            "playerTrialScore": -3,
            "oppTrialScore": 3,
            "playerTotalScore": -99,
            "oppTotalScore": 13,
            "waitTime": 5177.188503357489,
            "responseTime": 1642294674042,
            "catchQuestion": "How many <b class=\"r\">red<\/b> marbles did your opponent report drawing? ",
            "catchKey": -1,
            "catchResponse": -1,
            "catchTime": 1642294620135,
            "trialTime": 0
        },
        {
            "exptPart": "trial",
            "trialNumber": 43,
            "roleCurrent": "sender",
            "marblesSampled": 100,
            "probRed": 0.5,
            "lambda": 5,
            "drawnRed": 43,
            "reportedRed": 37,
            "inferredRed": 42,
            "playerTrialScore": 1,
            "oppTrialScore": -1,
            "playerTotalScore": -98,
            "oppTotalScore": 12,
            "waitTime": 2440.8921975183393,
            "responseTime": 1642294695257,
            "catchQuestion": "How many <b class=\"r\">red<\/b> marbles did your opponent report drawing? ",
            "catchKey": -1,
            "catchResponse": -1,
            "catchTime": 1642294620135,
            "trialTime": 0
        },
        {
            "exptPart": "trial",
            "trialNumber": 44,
            "roleCurrent": "receiver",
            "marblesSampled": 100,
            "probRed": 0.5,
            "lambda": 5,
            "drawnRed": 31,
            "reportedRed": 26,
            "inferredRed": 31,
            "playerTrialScore": 0,
            "oppTrialScore": 0,
            "playerTotalScore": -98,
            "oppTotalScore": 12,
            "waitTime": 5914.945520012032,
            "responseTime": 1642294710756,
            "catchQuestion": "How many <b class=\"r\">red<\/b> marbles did your opponent report drawing? ",
            "catchKey": -1,
            "catchResponse": -1,
            "catchTime": 1642294620135,
            "trialTime": 0
        },
        {
            "exptPart": "trial",
            "trialNumber": 45,
            "roleCurrent": "sender",
            "marblesSampled": 100,
            "probRed": 0.5,
            "lambda": 5,
            "drawnRed": 61,
            "reportedRed": 57,
            "inferredRed": 66,
            "playerTrialScore": 0,
            "oppTrialScore": -5,
            "playerTotalScore": -98,
            "oppTotalScore": 7,
            "waitTime": 2656.62939549096,
            "responseTime": 1642294733517,
            "catchQuestion": "How many <b class=\"r\">red<\/b> marbles did your opponent report drawing? ",
            "catchKey": -1,
            "catchResponse": -1,
            "catchTime": 1642294733517,
            "trialTime": 0
        },
        {
            "exptPart": "trial",
            "trialNumber": 46,
            "roleCurrent": "receiver",
            "marblesSampled": 100,
            "probRed": 0.5,
            "lambda": 5,
            "drawnRed": 38,
            "reportedRed": 32,
            "inferredRed": 35,
            "playerTrialScore": -3,
            "oppTrialScore": 3,
            "playerTotalScore": -101,
            "oppTotalScore": 10,
            "waitTime": 7026.139743738507,
            "responseTime": 1642294753075,
            "catchQuestion": "How many <b class=\"r\">red<\/b> marbles did your opponent report drawing? ",
            "catchKey": -1,
            "catchResponse": -1,
            "catchTime": 1642294733517,
            "trialTime": 0
        },
        {
            "exptPart": "trial",
            "trialNumber": 47,
            "roleCurrent": "sender",
            "marblesSampled": 100,
            "probRed": 0.5,
            "lambda": 5,
            "drawnRed": 55,
            "reportedRed": 47,
            "inferredRed": 54,
            "playerTrialScore": 1,
            "oppTrialScore": -1,
            "playerTotalScore": -100,
            "oppTotalScore": 9,
            "waitTime": 2464.7513491985837,
            "responseTime": 1642294783718,
            "catchQuestion": "How many <b class=\"r\">red<\/b> marbles did your opponent report drawing? ",
            "catchKey": -1,
            "catchResponse": -1,
            "catchTime": 1642294733517,
            "trialTime": 0
        },
        {
            "exptPart": "trial",
            "trialNumber": 48,
            "roleCurrent": "receiver",
            "marblesSampled": 100,
            "probRed": 0.5,
            "lambda": 5,
            "drawnRed": 45,
            "reportedRed": 42,
            "inferredRed": 43,
            "playerTrialScore": -2,
            "oppTrialScore": 2,
            "playerTotalScore": -102,
            "oppTotalScore": 11,
            "waitTime": 6223.329042118279,
            "responseTime": 1642294803930,
            "catchQuestion": "How many <b class=\"r\">red<\/b> marbles did your opponent report drawing? ",
            "catchKey": -1,
            "catchResponse": -1,
            "catchTime": 1642294733517,
            "trialTime": 0
        },
        {
            "exptPart": "trial",
            "trialNumber": 49,
            "roleCurrent": "sender",
            "marblesSampled": 100,
            "probRed": 0.5,
            "lambda": 5,
            "drawnRed": 51,
            "reportedRed": 46,
            "inferredRed": 52,
            "playerTrialScore": 0,
            "oppTrialScore": -1,
            "playerTotalScore": -102,
            "oppTotalScore": 10,
            "waitTime": 2220.4256498952727,
            "responseTime": 1642294821862,
            "catchQuestion": "How many <b class=\"r\">red<\/b> marbles did your opponent report drawing? ",
            "catchKey": -1,
            "catchResponse": -1,
            "catchTime": 1642294733517,
            "trialTime": 0
        },
        {
            "exptPart": "trial",
            "trialNumber": 50,
            "roleCurrent": "receiver",
            "marblesSampled": 100,
            "probRed": 0.5,
            "lambda": 5,
            "drawnRed": 34,
            "reportedRed": 32,
            "inferredRed": 35,
            "playerTrialScore": -1,
            "oppTrialScore": 0,
            "playerTotalScore": -103,
            "oppTotalScore": 10,
            "waitTime": 7008.127344935698,
            "responseTime": 1642294836994,
            "catchQuestion": "How many <b class=\"r\">red<\/b> marbles did your opponent report drawing? ",
            "catchKey": -1,
            "catchResponse": -1,
            "catchTime": 1642294836994,
            "trialTime": 0
        },
        {
            "exptPart": "trial",
            "trialNumber": 51,
            "roleCurrent": "sender",
            "marblesSampled": 100,
            "probRed": 0.5,
            "lambda": 5,
            "drawnRed": 42,
            "reportedRed": 37,
            "inferredRed": 42,
            "playerTrialScore": 0,
            "oppTrialScore": 0,
            "playerTotalScore": -103,
            "oppTotalScore": 10,
            "waitTime": 2364.4342735346113,
            "responseTime": 1642294865095,
            "catchQuestion": "How many <b class=\"r\">red<\/b> marbles did you actually draw (before any changes)? ",
            "catchKey": 42,
            "catchResponse": 37,
            "catchTime": 1642294865095,
            "trialTime": 0
        },
        {
            "exptPart": "trial",
            "trialNumber": 52,
            "roleCurrent": "receiver",
            "marblesSampled": 100,
            "probRed": 0.5,
            "lambda": 5,
            "drawnRed": 34,
            "reportedRed": 31,
            "inferredRed": 30,
            "playerTrialScore": -4,
            "oppTrialScore": 4,
            "playerTotalScore": -107,
            "oppTotalScore": 14,
            "waitTime": 6230.081414716544,
            "responseTime": 1642294892760,
            "catchQuestion": "How many <b class=\"r\">red<\/b> marbles did you actually draw (before any changes)? ",
            "catchKey": -1,
            "catchResponse": -1,
            "catchTime": 1642294865095,
            "trialTime": 0
        },
        {
            "exptPart": "trial",
            "trialNumber": 53,
            "roleCurrent": "sender",
            "marblesSampled": 100,
            "probRed": 0.5,
            "lambda": 5,
            "drawnRed": 63,
            "reportedRed": 69,
            "inferredRed": 73,
            "playerTrialScore": 0,
            "oppTrialScore": -10,
            "playerTotalScore": -107,
            "oppTotalScore": 4,
            "waitTime": 2905.155393918897,
            "responseTime": 1642294919251,
            "catchQuestion": "How many <b class=\"r\">red<\/b> marbles did you actually draw (before any changes)? ",
            "catchKey": -1,
            "catchResponse": -1,
            "catchTime": 1642294865095,
            "trialTime": 0
        },
        {
            "exptPart": "trial",
            "trialNumber": 54,
            "roleCurrent": "receiver",
            "marblesSampled": 100,
            "probRed": 0.5,
            "lambda": 5,
            "drawnRed": 39,
            "reportedRed": 31,
            "inferredRed": 32,
            "playerTrialScore": -7,
            "oppTrialScore": 7,
            "playerTotalScore": -114,
            "oppTotalScore": 11,
            "waitTime": 5429.518941995595,
            "responseTime": 1642294935378,
            "catchQuestion": "How many <b class=\"r\">red<\/b> marbles did you actually draw (before any changes)? ",
            "catchKey": -1,
            "catchResponse": -1,
            "catchTime": 1642294865095,
            "trialTime": 0
        },
        {
            "exptPart": "trial",
            "trialNumber": 55,
            "roleCurrent": "sender",
            "marblesSampled": 100,
            "probRed": 0.5,
            "lambda": 5,
            "drawnRed": 66,
            "reportedRed": 71,
            "inferredRed": 77,
            "playerTrialScore": 0,
            "oppTrialScore": -11,
            "playerTotalScore": -114,
            "oppTotalScore": 0,
            "waitTime": 2163.579592969082,
            "responseTime": 1642294958064,
            "catchQuestion": "How many <b class=\"r\">red<\/b> marbles did you actually draw (before any changes)? ",
            "catchKey": -1,
            "catchResponse": -1,
            "catchTime": 1642294958064,
            "trialTime": 0
        },
        {
            "exptPart": "trial",
            "trialNumber": 56,
            "roleCurrent": "receiver",
            "marblesSampled": 100,
            "probRed": 0.5,
            "lambda": 5,
            "drawnRed": 15,
            "reportedRed": 11,
            "inferredRed": 13,
            "playerTrialScore": -2,
            "oppTrialScore": 2,
            "playerTotalScore": -116,
            "oppTotalScore": 2,
            "waitTime": 5459.7796428847905,
            "responseTime": 1642294999790,
            "catchQuestion": "How many <b class=\"r\">red<\/b> marbles did you actually draw (before any changes)? ",
            "catchKey": -1,
            "catchResponse": -1,
            "catchTime": 1642294958064,
            "trialTime": 0
        },
        {
            "exptPart": "trial",
            "trialNumber": 57,
            "roleCurrent": "sender",
            "marblesSampled": 100,
            "probRed": 0.5,
            "lambda": 5,
            "drawnRed": 56,
            "reportedRed": 61,
            "inferredRed": 67,
            "playerTrialScore": 0,
            "oppTrialScore": -11,
            "playerTotalScore": -116,
            "oppTotalScore": -9,
            "waitTime": 2671.5180080753694,
            "responseTime": 1642295027334,
            "catchQuestion": "How many <b class=\"r\">red<\/b> marbles did you actually draw (before any changes)? ",
            "catchKey": -1,
            "catchResponse": -1,
            "catchTime": 1642294958064,
            "trialTime": 0
        },
        {
            "exptPart": "trial",
            "trialNumber": 58,
            "roleCurrent": "receiver",
            "marblesSampled": 100,
            "probRed": 0.5,
            "lambda": 5,
            "drawnRed": 17,
            "reportedRed": 8,
            "inferredRed": 14,
            "playerTrialScore": -3,
            "oppTrialScore": 3,
            "playerTotalScore": -119,
            "oppTotalScore": -6,
            "waitTime": 6173.354294860161,
            "responseTime": 1642295038963,
            "catchQuestion": "How many <b class=\"r\">red<\/b> marbles did you actually draw (before any changes)? ",
            "catchKey": -1,
            "catchResponse": -1,
            "catchTime": 1642294958064,
            "trialTime": 0
        },
        {
            "exptPart": "trial",
            "trialNumber": 59,
            "roleCurrent": "sender",
            "marblesSampled": 100,
            "probRed": 0.5,
            "lambda": 5,
            "drawnRed": 88,
            "reportedRed": 95,
            "inferredRed": 99,
            "playerTrialScore": 0,
            "oppTrialScore": -11,
            "playerTotalScore": -119,
            "oppTotalScore": -17,
            "waitTime": 2280.2289825535463,
            "responseTime": 1642295069275,
            "catchQuestion": "How many <b class=\"r\">red<\/b> marbles did you actually draw (before any changes)? ",
            "catchKey": -1,
            "catchResponse": -1,
            "catchTime": 1642294958064,
            "trialTime": 0
        },
        {
            "exptPart": "trial",
            "trialNumber": 60,
            "roleCurrent": "receiver",
            "marblesSampled": 100,
            "probRed": 0.5,
            "lambda": 5,
            "drawnRed": 62,
            "reportedRed": 60,
            "inferredRed": 57,
            "playerTrialScore": -5,
            "oppTrialScore": 5,
            "playerTotalScore": -124,
            "oppTotalScore": -12,
            "waitTime": 5530.7785773547075,
            "responseTime": 1642295115722,
            "catchQuestion": "How many <b class=\"r\">red<\/b> marbles did you actually draw (before any changes)? ",
            "catchKey": -1,
            "catchResponse": -1,
            "catchTime": 1642295115723,
            "trialTime": 0
        },
        {
            "exptPart": "trial",
            "trialNumber": 61,
            "roleCurrent": "sender",
            "marblesSampled": 100,
            "probRed": 0.5,
            "lambda": 5,
            "drawnRed": 17,
            "reportedRed": 25,
            "inferredRed": 26,
            "playerTrialScore": 0,
            "oppTrialScore": -9,
            "playerTotalScore": -124,
            "oppTotalScore": -21,
            "waitTime": 2476.216953981653,
            "responseTime": 1642295153564,
            "catchQuestion": "How many <b class=\"r\">red<\/b> marbles did you actually draw (before any changes)? ",
            "catchKey": -1,
            "catchResponse": -1,
            "catchTime": 1642295115723,
            "trialTime": 0
        },
        {
            "exptPart": "trial",
            "trialNumber": 62,
            "roleCurrent": "receiver",
            "marblesSampled": 100,
            "probRed": 0.5,
            "lambda": 5,
            "drawnRed": 45,
            "reportedRed": 40,
            "inferredRed": 36,
            "playerTrialScore": -9,
            "oppTrialScore": 9,
            "playerTotalScore": -133,
            "oppTotalScore": -12,
            "waitTime": 7194.704770099912,
            "responseTime": 1642295175634,
            "catchQuestion": "How many <b class=\"r\">red<\/b> marbles did you actually draw (before any changes)? ",
            "catchKey": -1,
            "catchResponse": -1,
            "catchTime": 1642295115723,
            "trialTime": 0
        },
        {
            "exptPart": "trial",
            "trialNumber": 63,
            "roleCurrent": "sender",
            "marblesSampled": 100,
            "probRed": 0.5,
            "lambda": 5,
            "drawnRed": 73,
            "reportedRed": 81,
            "inferredRed": 88,
            "playerTrialScore": 0,
            "oppTrialScore": -15,
            "playerTotalScore": -133,
            "oppTotalScore": -27,
            "waitTime": 3019.6784855631395,
            "responseTime": 1642295215082,
            "catchQuestion": "How many <b class=\"r\">red<\/b> marbles did you actually draw (before any changes)? ",
            "catchKey": -1,
            "catchResponse": -1,
            "catchTime": 1642295115723,
            "trialTime": 0
        },
        {
            "exptPart": "trial",
            "trialNumber": 64,
            "roleCurrent": "receiver",
            "marblesSampled": 100,
            "probRed": 0.5,
            "lambda": 5,
            "drawnRed": 30,
            "reportedRed": 27,
            "inferredRed": 23,
            "playerTrialScore": -7,
            "oppTrialScore": 7,
            "playerTotalScore": -140,
            "oppTotalScore": -20,
            "waitTime": 6745.96755768979,
            "responseTime": 1642295232194,
            "catchQuestion": "How many <b class=\"r\">red<\/b> marbles did you actually draw (before any changes)? ",
            "catchKey": -1,
            "catchResponse": -1,
            "catchTime": 1642295115723,
            "trialTime": 0
        },
        {
            "exptPart": "trial",
            "trialNumber": 65,
            "roleCurrent": "sender",
            "marblesSampled": 100,
            "probRed": 0.5,
            "lambda": 5,
            "drawnRed": 17,
            "reportedRed": 22,
            "inferredRed": 25,
            "playerTrialScore": 0,
            "oppTrialScore": -8,
            "playerTotalScore": -140,
            "oppTotalScore": -28,
            "waitTime": 2852.907975872933,
            "responseTime": 1642295252351,
            "catchQuestion": "How many <b class=\"r\">red<\/b> marbles did you actually draw (before any changes)? ",
            "catchKey": -1,
            "catchResponse": -1,
            "catchTime": 1642295252351,
            "trialTime": 0
        },
        {
            "exptPart": "trial",
            "trialNumber": 66,
            "roleCurrent": "receiver",
            "marblesSampled": 100,
            "probRed": 0.5,
            "lambda": 5,
            "drawnRed": 58,
            "reportedRed": 54,
            "inferredRed": 51,
            "playerTrialScore": -7,
            "oppTrialScore": 7,
            "playerTotalScore": -147,
            "oppTotalScore": -21,
            "waitTime": 6657.837982924698,
            "responseTime": 1642295305407,
            "catchQuestion": "How many <b class=\"r\">red<\/b> marbles did your opponent report drawing? ",
            "catchKey": 54,
            "catchResponse": 54,
            "catchTime": 1642295305407,
            "trialTime": 0
        },
        {
            "exptPart": "trial",
            "trialNumber": 67,
            "roleCurrent": "sender",
            "marblesSampled": 100,
            "probRed": 0.5,
            "lambda": 5,
            "drawnRed": 64,
            "reportedRed": 72,
            "inferredRed": 75,
            "playerTrialScore": 0,
            "oppTrialScore": -11,
            "playerTotalScore": -147,
            "oppTotalScore": -32,
            "waitTime": 2144.284414878527,
            "responseTime": 1642295342108,
            "catchQuestion": "How many <b class=\"r\">red<\/b> marbles did your opponent report drawing? ",
            "catchKey": -1,
            "catchResponse": -1,
            "catchTime": 1642295305407,
            "trialTime": 0
        },
        {
            "exptPart": "trial",
            "trialNumber": 68,
            "roleCurrent": "receiver",
            "marblesSampled": 100,
            "probRed": 0.5,
            "lambda": 5,
            "drawnRed": 24,
            "reportedRed": 21,
            "inferredRed": 18,
            "playerTrialScore": -6,
            "oppTrialScore": 6,
            "playerTotalScore": -153,
            "oppTotalScore": -26,
            "waitTime": 5323.787556216845,
            "responseTime": 1642295358103,
            "catchQuestion": "How many <b class=\"r\">red<\/b> marbles did your opponent report drawing? ",
            "catchKey": -1,
            "catchResponse": -1,
            "catchTime": 1642295305407,
            "trialTime": 0
        },
        {
            "exptPart": "trial",
            "trialNumber": 69,
            "roleCurrent": "sender",
            "marblesSampled": 100,
            "probRed": 0.5,
            "lambda": 5,
            "drawnRed": 59,
            "reportedRed": 65,
            "inferredRed": 68,
            "playerTrialScore": 0,
            "oppTrialScore": -9,
            "playerTotalScore": -153,
            "oppTotalScore": -35,
            "waitTime": 2827.8442511595717,
            "responseTime": 1642295395105,
            "catchQuestion": "How many <b class=\"r\">red<\/b> marbles did your opponent report drawing? ",
            "catchKey": -1,
            "catchResponse": -1,
            "catchTime": 1642295305407,
            "trialTime": 0
        },
        {
            "exptPart": "trial",
            "trialNumber": 70,
            "roleCurrent": "receiver",
            "marblesSampled": 100,
            "probRed": 0.5,
            "lambda": 5,
            "drawnRed": 41,
            "reportedRed": 32,
            "inferredRed": 28,
            "playerTrialScore": -13,
            "oppTrialScore": 13,
            "playerTotalScore": -166,
            "oppTotalScore": -22,
            "waitTime": 6709.97857098739,
            "responseTime": 1642295410207,
            "catchQuestion": "How many <b class=\"r\">red<\/b> marbles did your opponent report drawing? ",
            "catchKey": -1,
            "catchResponse": -1,
            "catchTime": 1642295410207,
            "trialTime": 0
        },
        {
            "exptPart": "trial",
            "trialNumber": 71,
            "roleCurrent": "sender",
            "marblesSampled": 100,
            "probRed": 0.5,
            "lambda": 5,
            "drawnRed": 58,
            "reportedRed": 54,
            "inferredRed": 55,
            "playerTrialScore": 3,
            "oppTrialScore": -3,
            "playerTotalScore": -163,
            "oppTotalScore": -25,
            "waitTime": 2066.578706508077,
            "responseTime": 1642295443898,
            "catchQuestion": "How many <b class=\"r\">red<\/b> marbles did your opponent report drawing? ",
            "catchKey": -1,
            "catchResponse": -1,
            "catchTime": 1642295410207,
            "trialTime": 0
        },
        {
            "exptPart": "trial",
            "trialNumber": 72,
            "roleCurrent": "receiver",
            "marblesSampled": 100,
            "probRed": 0.5,
            "lambda": 5,
            "drawnRed": 63,
            "reportedRed": 63,
            "inferredRed": 58,
            "playerTrialScore": -5,
            "oppTrialScore": 5,
            "playerTotalScore": -168,
            "oppTotalScore": -20,
            "waitTime": 7055.577459868394,
            "responseTime": 1642295474811,
            "catchQuestion": "How many <b class=\"r\">red<\/b> marbles did your opponent report drawing? ",
            "catchKey": -1,
            "catchResponse": -1,
            "catchTime": 1642295410207,
            "trialTime": 0
        },
        {
            "exptPart": "trial",
            "trialNumber": 73,
            "roleCurrent": "sender",
            "marblesSampled": 100,
            "probRed": 0.5,
            "lambda": 5,
            "drawnRed": 31,
            "reportedRed": 25,
            "inferredRed": 28,
            "playerTrialScore": 3,
            "oppTrialScore": -3,
            "playerTotalScore": -165,
            "oppTotalScore": -23,
            "waitTime": 2174.04044071886,
            "responseTime": 1642295496529,
            "catchQuestion": "How many <b class=\"r\">red<\/b> marbles did your opponent report drawing? ",
            "catchKey": -1,
            "catchResponse": -1,
            "catchTime": 1642295410207,
            "trialTime": 0
        },
        {
            "exptPart": "trial",
            "trialNumber": 74,
            "roleCurrent": "receiver",
            "marblesSampled": 100,
            "probRed": 0.5,
            "lambda": 5,
            "drawnRed": 69,
            "reportedRed": 68,
            "inferredRed": 74,
            "playerTrialScore": -5,
            "oppTrialScore": 0,
            "playerTotalScore": -170,
            "oppTotalScore": -23,
            "waitTime": 6761.764900451772,
            "responseTime": 1642295509798,
            "catchQuestion": "How many <b class=\"r\">red<\/b> marbles did your opponent report drawing? ",
            "catchKey": -1,
            "catchResponse": -1,
            "catchTime": 1642295410207,
            "trialTime": 0
        },
        {
            "exptPart": "trial",
            "trialNumber": 75,
            "roleCurrent": "sender",
            "marblesSampled": 100,
            "probRed": 0.5,
            "lambda": 5,
            "drawnRed": 43,
            "reportedRed": 36,
            "inferredRed": 42,
            "playerTrialScore": 1,
            "oppTrialScore": -1,
            "playerTotalScore": -169,
            "oppTotalScore": -24,
            "waitTime": 2643.8209727609265,
            "responseTime": 1642295542437,
            "catchQuestion": "How many <b class=\"r\">red<\/b> marbles did your opponent report drawing? ",
            "catchKey": -1,
            "catchResponse": -1,
            "catchTime": 1642295542438,
            "trialTime": 0
        },
        {
            "exptPart": "trial",
            "trialNumber": 76,
            "roleCurrent": "receiver",
            "marblesSampled": 100,
            "probRed": 0.5,
            "lambda": 5,
            "drawnRed": 75,
            "reportedRed": 71,
            "inferredRed": 69,
            "playerTrialScore": -6,
            "oppTrialScore": 6,
            "playerTotalScore": -175,
            "oppTotalScore": -18,
            "waitTime": 5463.9142232066115,
            "responseTime": 1642295557299,
            "catchQuestion": "How many <b class=\"r\">red<\/b> marbles did your opponent report drawing? ",
            "catchKey": -1,
            "catchResponse": -1,
            "catchTime": 1642295542438,
            "trialTime": 0
        },
        {
            "exptPart": "trial",
            "trialNumber": 77,
            "roleCurrent": "sender",
            "marblesSampled": 100,
            "probRed": 0.5,
            "lambda": 5,
            "drawnRed": 46,
            "reportedRed": 50,
            "inferredRed": 56,
            "playerTrialScore": 0,
            "oppTrialScore": -10,
            "playerTotalScore": -175,
            "oppTotalScore": -28,
            "waitTime": 2731.71896671816,
            "responseTime": 1642295587201,
            "catchQuestion": "How many <b class=\"r\">red<\/b> marbles did your opponent report drawing? ",
            "catchKey": -1,
            "catchResponse": -1,
            "catchTime": 1642295542438,
            "trialTime": 0
        },
        {
            "exptPart": "trial",
            "trialNumber": 78,
            "roleCurrent": "receiver",
            "marblesSampled": 100,
            "probRed": 0.5,
            "lambda": 5,
            "drawnRed": 30,
            "reportedRed": 20,
            "inferredRed": 17,
            "playerTrialScore": -13,
            "oppTrialScore": 13,
            "playerTotalScore": -188,
            "oppTotalScore": -15,
            "waitTime": 5618.15901050484,
            "responseTime": 1642295597208,
            "catchQuestion": "How many <b class=\"r\">red<\/b> marbles did your opponent report drawing? ",
            "catchKey": 20,
            "catchResponse": 20,
            "catchTime": 1642295597208,
            "trialTime": 0
        },
        {
            "exptPart": "trial",
            "trialNumber": 79,
            "roleCurrent": "sender",
            "marblesSampled": 100,
            "probRed": 0.5,
            "lambda": 5,
            "drawnRed": 41,
            "reportedRed": 47,
            "inferredRed": 49,
            "playerTrialScore": 0,
            "oppTrialScore": -8,
            "playerTotalScore": -188,
            "oppTotalScore": -23,
            "waitTime": 2098.034006259747,
            "responseTime": 1642295629128,
            "catchQuestion": "How many <b class=\"r\">red<\/b> marbles did your opponent report drawing? ",
            "catchKey": -1,
            "catchResponse": -1,
            "catchTime": 1642295597208,
            "trialTime": 0
        },
        {
            "exptPart": "trial",
            "trialNumber": 80,
            "roleCurrent": "receiver",
            "marblesSampled": 100,
            "probRed": 0.5,
            "lambda": 5,
            "drawnRed": 49,
            "reportedRed": 43,
            "inferredRed": 35,
            "playerTrialScore": -14,
            "oppTrialScore": 14,
            "playerTotalScore": -202,
            "oppTotalScore": -9,
            "waitTime": 6176.651454282176,
            "responseTime": 1642295646519,
            "catchQuestion": "How many <b class=\"r\">red<\/b> marbles did your opponent report drawing? ",
            "catchKey": -1,
            "catchResponse": -1,
            "catchTime": 1642295646519,
            "trialTime": 0
        },
        {
            "exptPart": "trial",
            "trialNumber": 81,
            "roleCurrent": "sender",
            "marblesSampled": 100,
            "probRed": 0.5,
            "lambda": 5,
            "drawnRed": 45,
            "reportedRed": 39,
            "inferredRed": 49,
            "playerTrialScore": 0,
            "oppTrialScore": -4,
            "playerTotalScore": -202,
            "oppTotalScore": -13,
            "waitTime": 2627.0476638823716,
            "responseTime": 1642295692753,
            "catchQuestion": "How many <b class=\"r\">red<\/b> marbles did your opponent report drawing? ",
            "catchKey": -1,
            "catchResponse": -1,
            "catchTime": 1642295646519,
            "trialTime": 0
        },
        {
            "exptPart": "trial",
            "trialNumber": 82,
            "roleCurrent": "receiver",
            "marblesSampled": 100,
            "probRed": 0.5,
            "lambda": 5,
            "drawnRed": 50,
            "reportedRed": 42,
            "inferredRed": 44,
            "playerTrialScore": -6,
            "oppTrialScore": 6,
            "playerTotalScore": -208,
            "oppTotalScore": -7,
            "waitTime": 6302.735639878967,
            "responseTime": 1642295709541,
            "catchQuestion": "How many <b class=\"r\">red<\/b> marbles did your opponent report drawing? ",
            "catchKey": -1,
            "catchResponse": -1,
            "catchTime": 1642295646519,
            "trialTime": 0
        },
        {
            "exptPart": "trial",
            "trialNumber": 83,
            "roleCurrent": "sender",
            "marblesSampled": 100,
            "probRed": 0.5,
            "lambda": 5,
            "drawnRed": 78,
            "reportedRed": 70,
            "inferredRed": 75,
            "playerTrialScore": 3,
            "oppTrialScore": -3,
            "playerTotalScore": -205,
            "oppTotalScore": -10,
            "waitTime": 2562.902793096998,
            "responseTime": 1642295740974,
            "catchQuestion": "How many <b class=\"r\">red<\/b> marbles did your opponent report drawing? ",
            "catchKey": -1,
            "catchResponse": -1,
            "catchTime": 1642295646519,
            "trialTime": 0
        },
        {
            "exptPart": "trial",
            "trialNumber": 84,
            "roleCurrent": "receiver",
            "marblesSampled": 100,
            "probRed": 0.5,
            "lambda": 5,
            "drawnRed": 46,
            "reportedRed": 45,
            "inferredRed": 48,
            "playerTrialScore": -2,
            "oppTrialScore": 0,
            "playerTotalScore": -207,
            "oppTotalScore": -10,
            "waitTime": 6470.058210205008,
            "responseTime": 1642295752992,
            "catchQuestion": "How many <b class=\"r\">red<\/b> marbles did your opponent report drawing? ",
            "catchKey": -1,
            "catchResponse": -1,
            "catchTime": 1642295646519,
            "trialTime": 0
        },
        {
            "exptPart": "trial",
            "trialNumber": 85,
            "roleCurrent": "sender",
            "marblesSampled": 100,
            "probRed": 0.5,
            "lambda": 5,
            "drawnRed": 41,
            "reportedRed": 32,
            "inferredRed": 40,
            "playerTrialScore": 1,
            "oppTrialScore": -1,
            "playerTotalScore": -206,
            "oppTotalScore": -11,
            "waitTime": 2206.489879034544,
            "responseTime": 1642295780614,
            "catchQuestion": "How many <b class=\"r\">red<\/b> marbles did your opponent report drawing? ",
            "catchKey": -1,
            "catchResponse": -1,
            "catchTime": 1642295780614,
            "trialTime": 0
        },
        {
            "exptPart": "trial",
            "trialNumber": 86,
            "roleCurrent": "receiver",
            "marblesSampled": 100,
            "probRed": 0.5,
            "lambda": 5,
            "drawnRed": 61,
            "reportedRed": 53,
            "inferredRed": 57,
            "playerTrialScore": -4,
            "oppTrialScore": 4,
            "playerTotalScore": -210,
            "oppTotalScore": -7,
            "waitTime": 6959.9528834167595,
            "responseTime": 1642295797632,
            "catchQuestion": "How many <b class=\"r\">red<\/b> marbles did your opponent report drawing? ",
            "catchKey": 53,
            "catchResponse": 53,
            "catchTime": 1642295797632,
            "trialTime": 0
        },
        {
            "exptPart": "trial",
            "trialNumber": 87,
            "roleCurrent": "sender",
            "marblesSampled": 100,
            "probRed": 0.5,
            "lambda": 5,
            "drawnRed": 40,
            "reportedRed": 32,
            "inferredRed": 38,
            "playerTrialScore": 2,
            "oppTrialScore": -2,
            "playerTotalScore": -208,
            "oppTotalScore": -9,
            "waitTime": 2238.7544950623833,
            "responseTime": 1642295828147,
            "catchQuestion": "How many <b class=\"r\">red<\/b> marbles did your opponent report drawing? ",
            "catchKey": -1,
            "catchResponse": -1,
            "catchTime": 1642295797632,
            "trialTime": 0
        },
        {
            "exptPart": "trial",
            "trialNumber": 88,
            "roleCurrent": "receiver",
            "marblesSampled": 100,
            "probRed": 0.5,
            "lambda": 5,
            "drawnRed": 53,
            "reportedRed": 48,
            "inferredRed": 50,
            "playerTrialScore": -3,
            "oppTrialScore": 3,
            "playerTotalScore": -211,
            "oppTotalScore": -6,
            "waitTime": 6089.395016023016,
            "responseTime": 1642295838641,
            "catchQuestion": "How many <b class=\"r\">red<\/b> marbles did your opponent report drawing? ",
            "catchKey": -1,
            "catchResponse": -1,
            "catchTime": 1642295797632,
            "trialTime": 0
        },
        {
            "exptPart": "trial",
            "trialNumber": 89,
            "roleCurrent": "sender",
            "marblesSampled": 100,
            "probRed": 0.5,
            "lambda": 5,
            "drawnRed": 37,
            "reportedRed": 27,
            "inferredRed": 29,
            "playerTrialScore": 8,
            "oppTrialScore": -8,
            "playerTotalScore": -203,
            "oppTotalScore": -14,
            "waitTime": 2470.63791382836,
            "responseTime": 1642295869678,
            "catchQuestion": "How many <b class=\"r\">red<\/b> marbles did your opponent report drawing? ",
            "catchKey": -1,
            "catchResponse": -1,
            "catchTime": 1642295797632,
            "trialTime": 0
        },
        {
            "exptPart": "trial",
            "trialNumber": 90,
            "roleCurrent": "receiver",
            "marblesSampled": 100,
            "probRed": 0.5,
            "lambda": 5,
            "drawnRed": 29,
            "reportedRed": 26,
            "inferredRed": 33,
            "playerTrialScore": -4,
            "oppTrialScore": 0,
            "playerTotalScore": -207,
            "oppTotalScore": -14,
            "waitTime": 6025.363755249404,
            "responseTime": 1642295881997,
            "catchQuestion": "How many <b class=\"r\">red<\/b> marbles did your opponent report drawing? ",
            "catchKey": -1,
            "catchResponse": -1,
            "catchTime": 1642295881997,
            "trialTime": 0
        },
        {
            "exptPart": "trial",
            "trialNumber": 91,
            "roleCurrent": "sender",
            "marblesSampled": 100,
            "probRed": 0.5,
            "lambda": 5,
            "drawnRed": 37,
            "reportedRed": 30,
            "inferredRed": 37,
            "playerTrialScore": 0,
            "oppTrialScore": 0,
            "playerTotalScore": -207,
            "oppTotalScore": -14,
            "waitTime": 2213.5864643962213,
            "responseTime": 1642295926560,
            "catchQuestion": "How many <b class=\"r\">red<\/b> marbles did your opponent report drawing? ",
            "catchKey": -1,
            "catchResponse": -1,
            "catchTime": 1642295881997,
            "trialTime": 0
        },
        {
            "exptPart": "trial",
            "trialNumber": 92,
            "roleCurrent": "receiver",
            "marblesSampled": 100,
            "probRed": 0.5,
            "lambda": 5,
            "drawnRed": 80,
            "reportedRed": 76,
            "inferredRed": 82,
            "playerTrialScore": -2,
            "oppTrialScore": 0,
            "playerTotalScore": -209,
            "oppTotalScore": -14,
            "waitTime": 6880.751207424295,
            "responseTime": 1642295941280,
            "catchQuestion": "How many <b class=\"r\">red<\/b> marbles did your opponent report drawing? ",
            "catchKey": -1,
            "catchResponse": -1,
            "catchTime": 1642295881997,
            "trialTime": 0
        },
        {
            "exptPart": "trial",
            "trialNumber": 93,
            "roleCurrent": "sender",
            "marblesSampled": 100,
            "probRed": 0.5,
            "lambda": 5,
            "drawnRed": 82,
            "reportedRed": 75,
            "inferredRed": 77,
            "playerTrialScore": 5,
            "oppTrialScore": -5,
            "playerTotalScore": -204,
            "oppTotalScore": -19,
            "waitTime": 2432.1375947399574,
            "responseTime": 1642295989412,
            "catchQuestion": "How many <b class=\"r\">red<\/b> marbles did your opponent report drawing? ",
            "catchKey": -1,
            "catchResponse": -1,
            "catchTime": 1642295881997,
            "trialTime": 0
        },
        {
            "exptPart": "trial",
            "trialNumber": 94,
            "roleCurrent": "receiver",
            "marblesSampled": 100,
            "probRed": 0.5,
            "lambda": 5,
            "drawnRed": 74,
            "reportedRed": 67,
            "inferredRed": 72,
            "playerTrialScore": -2,
            "oppTrialScore": 2,
            "playerTotalScore": -206,
            "oppTotalScore": -17,
            "waitTime": 6159.456937834357,
            "responseTime": 1642296042585,
            "catchQuestion": "How many <b class=\"r\">red<\/b> marbles did your opponent report drawing? ",
            "catchKey": -1,
            "catchResponse": -1,
            "catchTime": 1642295881997,
            "trialTime": 0
        },
        {
            "exptPart": "trial",
            "trialNumber": 95,
            "roleCurrent": "sender",
            "marblesSampled": 100,
            "probRed": 0.5,
            "lambda": 5,
            "drawnRed": 35,
            "reportedRed": 30,
            "inferredRed": 40,
            "playerTrialScore": 0,
            "oppTrialScore": -5,
            "playerTotalScore": -206,
            "oppTotalScore": -22,
            "waitTime": 2720.1373851234644,
            "responseTime": 1642296078049,
            "catchQuestion": "How many <b class=\"r\">red<\/b> marbles did your opponent report drawing? ",
            "catchKey": -1,
            "catchResponse": -1,
            "catchTime": 1642296078049,
            "trialTime": 0
        },
        {
            "exptPart": "trial",
            "trialNumber": 96,
            "roleCurrent": "receiver",
            "marblesSampled": 100,
            "probRed": 0.5,
            "lambda": 5,
            "drawnRed": 78,
            "reportedRed": 70,
            "inferredRed": 72,
            "playerTrialScore": -6,
            "oppTrialScore": 6,
            "playerTotalScore": -212,
            "oppTotalScore": -16,
            "waitTime": 6930.857262913454,
            "responseTime": 1642296104572,
            "catchQuestion": "How many <b class=\"r\">red<\/b> marbles did your opponent report drawing? ",
            "catchKey": -1,
            "catchResponse": -1,
            "catchTime": 1642296078049,
            "trialTime": 0
        },
        {
            "exptPart": "trial",
            "trialNumber": 97,
            "roleCurrent": "sender",
            "marblesSampled": 100,
            "probRed": 0.5,
            "lambda": 5,
            "drawnRed": 28,
            "reportedRed": 21,
            "inferredRed": 25,
            "playerTrialScore": 3,
            "oppTrialScore": -3,
            "playerTotalScore": -209,
            "oppTotalScore": -19,
            "waitTime": 2292.752650421113,
            "responseTime": 1642296133043,
            "catchQuestion": "How many <b class=\"r\">red<\/b> marbles did your opponent report drawing? ",
            "catchKey": -1,
            "catchResponse": -1,
            "catchTime": 1642296078049,
            "trialTime": 0
        },
        {
            "exptPart": "trial",
            "trialNumber": 98,
            "roleCurrent": "receiver",
            "marblesSampled": 100,
            "probRed": 0.5,
            "lambda": 5,
            "drawnRed": 25,
            "reportedRed": 23,
            "inferredRed": 29,
            "playerTrialScore": -4,
            "oppTrialScore": 0,
            "playerTotalScore": -213,
            "oppTotalScore": -19,
            "waitTime": 5868.893523660766,
            "responseTime": 1642296147378,
            "catchQuestion": "How many <b class=\"r\">red<\/b> marbles did your opponent report drawing? ",
            "catchKey": 23,
            "catchResponse": 23,
            "catchTime": 1642296147378,
            "trialTime": 0
        },
        {
            "exptPart": "trial",
            "trialNumber": 99,
            "roleCurrent": "sender",
            "marblesSampled": 100,
            "probRed": 0.5,
            "lambda": 5,
            "drawnRed": 46,
            "reportedRed": 41,
            "inferredRed": 45,
            "playerTrialScore": 1,
            "oppTrialScore": -1,
            "playerTotalScore": -212,
            "oppTotalScore": -20,
            "waitTime": 2380.0187458605387,
            "responseTime": 1642296175199,
            "catchQuestion": "How many <b class=\"r\">red<\/b> marbles did your opponent report drawing? ",
            "catchKey": -1,
            "catchResponse": -1,
            "catchTime": 1642296147378,
            "trialTime": 0
        },
        {
            "exptPart": "trial",
            "trialNumber": 100,
            "roleCurrent": "receiver",
            "marblesSampled": 100,
            "probRed": 0.5,
            "lambda": 5,
            "drawnRed": 51,
            "reportedRed": 43,
            "inferredRed": 48,
            "playerTrialScore": -3,
            "oppTrialScore": 3,
            "playerTotalScore": -215,
            "oppTotalScore": -17,
            "waitTime": 7241.863326902028,
            "responseTime": 1642296187606,
            "catchQuestion": "How many <b class=\"r\">red<\/b> marbles did your opponent report drawing? ",
            "catchKey": -1,
            "catchResponse": -1,
            "catchTime": 1642296187606,
            "trialTime": 0
        }
    ]
}