{
    "client": {
        "type": "sona",
        "experiment_id": 2228,
        "credit_token": "b315147ae43241ea9c65086cb510cfb7",
        "survey_code": "34717",
        "sid": "sona-34717",
        "window": {
            "width": 1280,
            "height": 601
        },
        "screen": {
            "width": 1280,
            "height": 720
        },
        "userAgent": "Mozilla\/5.0 (Windows NT 10.0; Win64; x64) AppleWebKit\/537.36 (KHTML, like Gecko) Chrome\/97.0.4692.71 Safari\/537.36",
        "score": 0,
        "bonus": 0
    },
    "expt": {
        "saveURL": "submit.simple.php",
        "trials": 100,
        "practiceTrials": 2,
        "marblesSampled": 100,
        "probRed": 0.5,
        "lambdaAI": 5,
        "roleFirst": "sender",
        "roles": [
            "sender",
            "receiver"
        ],
        "cost": "unif",
        "goal": "under",
        "catchTrials": [
            48,
            40,
            27,
            38,
            60,
            36,
            19,
            50,
            18,
            8
        ],
        "scoreTotal": {
            "player": -532,
            "opp": 70
        },
        "sona": {
            "experiment_id": 2228,
            "credit_token": "b315147ae43241ea9c65086cb510cfb7"
        },
        "pilot": false,
        "debug": false
    },
    "trials": [
        {
            "exptPart": "practice",
            "trialNumber": 1,
            "roleCurrent": "sender",
            "marblesSampled": 100,
            "probRed": 0.5,
            "lambda": 5,
            "drawnRed": 34,
            "reportedRed": 26,
            "inferredRed": 30,
            "playerTrialScore": 4,
            "oppTrialScore": -4,
            "playerTotalScore": 4,
            "oppTotalScore": -4,
            "waitTime": 2343.46283688382,
            "responseTime": 1642716614031,
            "catchQuestion": "How many <b class=\"r\">red<\/b> marbles did you actually draw (before any changes)? ",
            "catchKey": 34,
            "catchResponse": 32,
            "catchTime": 1642716614031,
            "trialTime": 0
        },
        {
            "exptPart": "practice",
            "trialNumber": 2,
            "roleCurrent": "receiver",
            "marblesSampled": 100,
            "probRed": 0.5,
            "lambda": 5,
            "drawnRed": 93,
            "reportedRed": 87,
            "inferredRed": 41,
            "playerTrialScore": -52,
            "oppTrialScore": 52,
            "playerTotalScore": -48,
            "oppTotalScore": 48,
            "waitTime": 5772.284147518229,
            "responseTime": 1642716664062,
            "catchQuestion": "How many <b class=\"r\">red<\/b> marbles did your opponent report drawing? ",
            "catchKey": 87,
            "catchResponse": 87,
            "catchTime": 1642716664062,
            "trialTime": 0
        },
        {
            "exptPart": "trial",
            "trialNumber": 1,
            "roleCurrent": "sender",
            "marblesSampled": 100,
            "probRed": 0.5,
            "lambda": 5,
            "drawnRed": 17,
            "reportedRed": 8,
            "inferredRed": 13,
            "playerTrialScore": 4,
            "oppTrialScore": -4,
            "playerTotalScore": 4,
            "oppTotalScore": -4,
            "waitTime": 2158.0576029817657,
            "responseTime": 1642716719243,
            "catchQuestion": "How many <b class=\"r\">red<\/b> marbles did your opponent report drawing? ",
            "catchKey": -1,
            "catchResponse": -1,
            "catchTime": 1642716664062,
            "trialTime": 0
        },
        {
            "exptPart": "trial",
            "trialNumber": 2,
            "roleCurrent": "receiver",
            "marblesSampled": 100,
            "probRed": 0.5,
            "lambda": 5,
            "drawnRed": 57,
            "reportedRed": 54,
            "inferredRed": 60,
            "playerTrialScore": -3,
            "oppTrialScore": 0,
            "playerTotalScore": 1,
            "oppTotalScore": -4,
            "waitTime": 5646.787000861585,
            "responseTime": 1642716771626,
            "catchQuestion": "How many <b class=\"r\">red<\/b> marbles did your opponent report drawing? ",
            "catchKey": -1,
            "catchResponse": -1,
            "catchTime": 1642716664062,
            "trialTime": 0
        },
        {
            "exptPart": "trial",
            "trialNumber": 3,
            "roleCurrent": "sender",
            "marblesSampled": 100,
            "probRed": 0.5,
            "lambda": 5,
            "drawnRed": 42,
            "reportedRed": 31,
            "inferredRed": 33,
            "playerTrialScore": 9,
            "oppTrialScore": -9,
            "playerTotalScore": 10,
            "oppTotalScore": -13,
            "waitTime": 2377.537703688614,
            "responseTime": 1642716785416,
            "catchQuestion": "How many <b class=\"r\">red<\/b> marbles did your opponent report drawing? ",
            "catchKey": -1,
            "catchResponse": -1,
            "catchTime": 1642716664062,
            "trialTime": 0
        },
        {
            "exptPart": "trial",
            "trialNumber": 4,
            "roleCurrent": "receiver",
            "marblesSampled": 100,
            "probRed": 0.5,
            "lambda": 5,
            "drawnRed": 68,
            "reportedRed": 65,
            "inferredRed": 54,
            "playerTrialScore": -14,
            "oppTrialScore": 14,
            "playerTotalScore": -4,
            "oppTotalScore": 1,
            "waitTime": 5392.313823647053,
            "responseTime": 1642716801567,
            "catchQuestion": "How many <b class=\"r\">red<\/b> marbles did your opponent report drawing? ",
            "catchKey": -1,
            "catchResponse": -1,
            "catchTime": 1642716664062,
            "trialTime": 0
        },
        {
            "exptPart": "trial",
            "trialNumber": 5,
            "roleCurrent": "sender",
            "marblesSampled": 100,
            "probRed": 0.5,
            "lambda": 5,
            "drawnRed": 46,
            "reportedRed": 43,
            "inferredRed": 46,
            "playerTrialScore": 0,
            "oppTrialScore": 0,
            "playerTotalScore": -4,
            "oppTotalScore": 1,
            "waitTime": 2334.626579145681,
            "responseTime": 1642716810284,
            "catchQuestion": "How many <b class=\"r\">red<\/b> marbles did your opponent report drawing? ",
            "catchKey": -1,
            "catchResponse": -1,
            "catchTime": 1642716810284,
            "trialTime": 0
        },
        {
            "exptPart": "trial",
            "trialNumber": 6,
            "roleCurrent": "receiver",
            "marblesSampled": 100,
            "probRed": 0.5,
            "lambda": 5,
            "drawnRed": 34,
            "reportedRed": 27,
            "inferredRed": 32,
            "playerTrialScore": -2,
            "oppTrialScore": 2,
            "playerTotalScore": -6,
            "oppTotalScore": 3,
            "waitTime": 6005.244657065385,
            "responseTime": 1642716840731,
            "catchQuestion": "How many <b class=\"r\">red<\/b> marbles did your opponent report drawing? ",
            "catchKey": -1,
            "catchResponse": -1,
            "catchTime": 1642716810284,
            "trialTime": 0
        },
        {
            "exptPart": "trial",
            "trialNumber": 7,
            "roleCurrent": "sender",
            "marblesSampled": 100,
            "probRed": 0.5,
            "lambda": 5,
            "drawnRed": 89,
            "reportedRed": 89,
            "inferredRed": 93,
            "playerTrialScore": 0,
            "oppTrialScore": -4,
            "playerTotalScore": -6,
            "oppTotalScore": -1,
            "waitTime": 2099.9586773477977,
            "responseTime": 1642716850267,
            "catchQuestion": "How many <b class=\"r\">red<\/b> marbles did your opponent report drawing? ",
            "catchKey": -1,
            "catchResponse": -1,
            "catchTime": 1642716810284,
            "trialTime": 0
        },
        {
            "exptPart": "trial",
            "trialNumber": 8,
            "roleCurrent": "receiver",
            "marblesSampled": 100,
            "probRed": 0.5,
            "lambda": 5,
            "drawnRed": 29,
            "reportedRed": 24,
            "inferredRed": 42,
            "playerTrialScore": -13,
            "oppTrialScore": 0,
            "playerTotalScore": -19,
            "oppTotalScore": -1,
            "waitTime": 6267.909493996676,
            "responseTime": 1642716862830,
            "catchQuestion": "How many <b class=\"r\">red<\/b> marbles did your opponent report drawing? ",
            "catchKey": -1,
            "catchResponse": -1,
            "catchTime": 1642716810284,
            "trialTime": 0
        },
        {
            "exptPart": "trial",
            "trialNumber": 9,
            "roleCurrent": "sender",
            "marblesSampled": 100,
            "probRed": 0.5,
            "lambda": 5,
            "drawnRed": 23,
            "reportedRed": 13,
            "inferredRed": 22,
            "playerTrialScore": 1,
            "oppTrialScore": -1,
            "playerTotalScore": -18,
            "oppTotalScore": -2,
            "waitTime": 2489.8709525506674,
            "responseTime": 1642716878409,
            "catchQuestion": "How many <b class=\"r\">red<\/b> marbles did you actually draw (before any changes)? ",
            "catchKey": 23,
            "catchResponse": 56,
            "catchTime": 1642716878409,
            "trialTime": 0
        },
        {
            "exptPart": "trial",
            "trialNumber": 10,
            "roleCurrent": "receiver",
            "marblesSampled": 100,
            "probRed": 0.5,
            "lambda": 5,
            "drawnRed": 7,
            "reportedRed": 2,
            "inferredRed": 11,
            "playerTrialScore": -4,
            "oppTrialScore": 0,
            "playerTotalScore": -22,
            "oppTotalScore": -2,
            "waitTime": 6490.921694104403,
            "responseTime": 1642716910274,
            "catchQuestion": "How many <b class=\"r\">red<\/b> marbles did you actually draw (before any changes)? ",
            "catchKey": -1,
            "catchResponse": -1,
            "catchTime": 1642716910274,
            "trialTime": 0
        },
        {
            "exptPart": "trial",
            "trialNumber": 11,
            "roleCurrent": "sender",
            "marblesSampled": 100,
            "probRed": 0.5,
            "lambda": 5,
            "drawnRed": 48,
            "reportedRed": 32,
            "inferredRed": 39,
            "playerTrialScore": 9,
            "oppTrialScore": -9,
            "playerTotalScore": -13,
            "oppTotalScore": -11,
            "waitTime": 2212.315356388644,
            "responseTime": 1642716925986,
            "catchQuestion": "How many <b class=\"r\">red<\/b> marbles did you actually draw (before any changes)? ",
            "catchKey": -1,
            "catchResponse": -1,
            "catchTime": 1642716910274,
            "trialTime": 0
        },
        {
            "exptPart": "trial",
            "trialNumber": 12,
            "roleCurrent": "receiver",
            "marblesSampled": 100,
            "probRed": 0.5,
            "lambda": 5,
            "drawnRed": 84,
            "reportedRed": 81,
            "inferredRed": 78,
            "playerTrialScore": -6,
            "oppTrialScore": 6,
            "playerTotalScore": -19,
            "oppTotalScore": -5,
            "waitTime": 6361.2607758401045,
            "responseTime": 1642716942709,
            "catchQuestion": "How many <b class=\"r\">red<\/b> marbles did you actually draw (before any changes)? ",
            "catchKey": -1,
            "catchResponse": -1,
            "catchTime": 1642716910274,
            "trialTime": 0
        },
        {
            "exptPart": "trial",
            "trialNumber": 13,
            "roleCurrent": "sender",
            "marblesSampled": 100,
            "probRed": 0.5,
            "lambda": 5,
            "drawnRed": 41,
            "reportedRed": 33,
            "inferredRed": 37,
            "playerTrialScore": 4,
            "oppTrialScore": -4,
            "playerTotalScore": -15,
            "oppTotalScore": -9,
            "waitTime": 2649.925784905453,
            "responseTime": 1642716973041,
            "catchQuestion": "How many <b class=\"r\">red<\/b> marbles did you actually draw (before any changes)? ",
            "catchKey": -1,
            "catchResponse": -1,
            "catchTime": 1642716910274,
            "trialTime": 0
        },
        {
            "exptPart": "trial",
            "trialNumber": 14,
            "roleCurrent": "receiver",
            "marblesSampled": 100,
            "probRed": 0.5,
            "lambda": 5,
            "drawnRed": 70,
            "reportedRed": 67,
            "inferredRed": 70,
            "playerTrialScore": 0,
            "oppTrialScore": 0,
            "playerTotalScore": -15,
            "oppTotalScore": -9,
            "waitTime": 6313.279917037062,
            "responseTime": 1642717005147,
            "catchQuestion": "How many <b class=\"r\">red<\/b> marbles did you actually draw (before any changes)? ",
            "catchKey": -1,
            "catchResponse": -1,
            "catchTime": 1642716910274,
            "trialTime": 0
        },
        {
            "exptPart": "trial",
            "trialNumber": 15,
            "roleCurrent": "sender",
            "marblesSampled": 100,
            "probRed": 0.5,
            "lambda": 5,
            "drawnRed": 26,
            "reportedRed": 25,
            "inferredRed": 27,
            "playerTrialScore": 0,
            "oppTrialScore": -1,
            "playerTotalScore": -15,
            "oppTotalScore": -10,
            "waitTime": 2563.6197805108814,
            "responseTime": 1642717016033,
            "catchQuestion": "How many <b class=\"r\">red<\/b> marbles did you actually draw (before any changes)? ",
            "catchKey": -1,
            "catchResponse": -1,
            "catchTime": 1642717016033,
            "trialTime": 0
        },
        {
            "exptPart": "trial",
            "trialNumber": 16,
            "roleCurrent": "receiver",
            "marblesSampled": 100,
            "probRed": 0.5,
            "lambda": 5,
            "drawnRed": 56,
            "reportedRed": 51,
            "inferredRed": 80,
            "playerTrialScore": -24,
            "oppTrialScore": 0,
            "playerTotalScore": -39,
            "oppTotalScore": -10,
            "waitTime": 5326.793265146018,
            "responseTime": 1642717028325,
            "catchQuestion": "How many <b class=\"r\">red<\/b> marbles did you actually draw (before any changes)? ",
            "catchKey": -1,
            "catchResponse": -1,
            "catchTime": 1642717016033,
            "trialTime": 0
        },
        {
            "exptPart": "trial",
            "trialNumber": 17,
            "roleCurrent": "sender",
            "marblesSampled": 100,
            "probRed": 0.5,
            "lambda": 5,
            "drawnRed": 23,
            "reportedRed": 0,
            "inferredRed": 9,
            "playerTrialScore": 14,
            "oppTrialScore": -14,
            "playerTotalScore": -25,
            "oppTotalScore": -24,
            "waitTime": 2129.934756644986,
            "responseTime": 1642717047075,
            "catchQuestion": "How many <b class=\"r\">red<\/b> marbles did you actually draw (before any changes)? ",
            "catchKey": -1,
            "catchResponse": -1,
            "catchTime": 1642717016033,
            "trialTime": 0
        },
        {
            "exptPart": "trial",
            "trialNumber": 18,
            "roleCurrent": "receiver",
            "marblesSampled": 100,
            "probRed": 0.5,
            "lambda": 5,
            "drawnRed": 28,
            "reportedRed": 21,
            "inferredRed": 69,
            "playerTrialScore": -41,
            "oppTrialScore": 0,
            "playerTotalScore": -66,
            "oppTotalScore": -24,
            "waitTime": 5642.928172800635,
            "responseTime": 1642717056318,
            "catchQuestion": "How many <b class=\"r\">red<\/b> marbles did you actually draw (before any changes)? ",
            "catchKey": -1,
            "catchResponse": -1,
            "catchTime": 1642717016033,
            "trialTime": 0
        },
        {
            "exptPart": "trial",
            "trialNumber": 19,
            "roleCurrent": "sender",
            "marblesSampled": 100,
            "probRed": 0.5,
            "lambda": 5,
            "drawnRed": 70,
            "reportedRed": 83,
            "inferredRed": 87,
            "playerTrialScore": 0,
            "oppTrialScore": -17,
            "playerTotalScore": -66,
            "oppTotalScore": -41,
            "waitTime": 2458.444240734282,
            "responseTime": 1642717070316,
            "catchQuestion": "How many <b class=\"r\">red<\/b> marbles did you actually draw (before any changes)? ",
            "catchKey": 70,
            "catchResponse": 70,
            "catchTime": 1642717070316,
            "trialTime": 0
        },
        {
            "exptPart": "trial",
            "trialNumber": 20,
            "roleCurrent": "receiver",
            "marblesSampled": 100,
            "probRed": 0.5,
            "lambda": 5,
            "drawnRed": 87,
            "reportedRed": 81,
            "inferredRed": 82,
            "playerTrialScore": -5,
            "oppTrialScore": 5,
            "playerTotalScore": -71,
            "oppTotalScore": -36,
            "waitTime": 5174.4719451736855,
            "responseTime": 1642717085078,
            "catchQuestion": "How many <b class=\"r\">red<\/b> marbles did your opponent report drawing? ",
            "catchKey": 81,
            "catchResponse": 81,
            "catchTime": 1642717085078,
            "trialTime": 0
        },
        {
            "exptPart": "trial",
            "trialNumber": 21,
            "roleCurrent": "sender",
            "marblesSampled": 100,
            "probRed": 0.5,
            "lambda": 5,
            "drawnRed": 66,
            "reportedRed": 66,
            "inferredRed": 75,
            "playerTrialScore": 0,
            "oppTrialScore": -9,
            "playerTotalScore": -71,
            "oppTotalScore": -45,
            "waitTime": 2178.543784331231,
            "responseTime": 1642717099382,
            "catchQuestion": "How many <b class=\"r\">red<\/b> marbles did your opponent report drawing? ",
            "catchKey": -1,
            "catchResponse": -1,
            "catchTime": 1642717085078,
            "trialTime": 0
        },
        {
            "exptPart": "trial",
            "trialNumber": 22,
            "roleCurrent": "receiver",
            "marblesSampled": 100,
            "probRed": 0.5,
            "lambda": 5,
            "drawnRed": 31,
            "reportedRed": 27,
            "inferredRed": 27,
            "playerTrialScore": -4,
            "oppTrialScore": 4,
            "playerTotalScore": -75,
            "oppTotalScore": -41,
            "waitTime": 6050.8186424470205,
            "responseTime": 1642717110728,
            "catchQuestion": "How many <b class=\"r\">red<\/b> marbles did your opponent report drawing? ",
            "catchKey": -1,
            "catchResponse": -1,
            "catchTime": 1642717085078,
            "trialTime": 0
        },
        {
            "exptPart": "trial",
            "trialNumber": 23,
            "roleCurrent": "sender",
            "marblesSampled": 100,
            "probRed": 0.5,
            "lambda": 5,
            "drawnRed": 63,
            "reportedRed": 63,
            "inferredRed": 69,
            "playerTrialScore": 0,
            "oppTrialScore": -6,
            "playerTotalScore": -75,
            "oppTotalScore": -47,
            "waitTime": 2598.5625683435787,
            "responseTime": 1642717118778,
            "catchQuestion": "How many <b class=\"r\">red<\/b> marbles did your opponent report drawing? ",
            "catchKey": -1,
            "catchResponse": -1,
            "catchTime": 1642717085078,
            "trialTime": 0
        },
        {
            "exptPart": "trial",
            "trialNumber": 24,
            "roleCurrent": "receiver",
            "marblesSampled": 100,
            "probRed": 0.5,
            "lambda": 5,
            "drawnRed": 75,
            "reportedRed": 72,
            "inferredRed": 72,
            "playerTrialScore": -3,
            "oppTrialScore": 3,
            "playerTotalScore": -78,
            "oppTotalScore": -44,
            "waitTime": 6192.16202529387,
            "responseTime": 1642717127716,
            "catchQuestion": "How many <b class=\"r\">red<\/b> marbles did your opponent report drawing? ",
            "catchKey": -1,
            "catchResponse": -1,
            "catchTime": 1642717085078,
            "trialTime": 0
        },
        {
            "exptPart": "trial",
            "trialNumber": 25,
            "roleCurrent": "sender",
            "marblesSampled": 100,
            "probRed": 0.5,
            "lambda": 5,
            "drawnRed": 74,
            "reportedRed": 74,
            "inferredRed": 77,
            "playerTrialScore": 0,
            "oppTrialScore": -3,
            "playerTotalScore": -78,
            "oppTotalScore": -47,
            "waitTime": 2185.7332280307555,
            "responseTime": 1642717141246,
            "catchQuestion": "How many <b class=\"r\">red<\/b> marbles did your opponent report drawing? ",
            "catchKey": -1,
            "catchResponse": -1,
            "catchTime": 1642717141246,
            "trialTime": 0
        },
        {
            "exptPart": "trial",
            "trialNumber": 26,
            "roleCurrent": "receiver",
            "marblesSampled": 100,
            "probRed": 0.5,
            "lambda": 5,
            "drawnRed": 21,
            "reportedRed": 17,
            "inferredRed": 20,
            "playerTrialScore": -1,
            "oppTrialScore": 1,
            "playerTotalScore": -79,
            "oppTotalScore": -46,
            "waitTime": 5844.302014672467,
            "responseTime": 1642717160262,
            "catchQuestion": "How many <b class=\"r\">red<\/b> marbles did your opponent report drawing? ",
            "catchKey": -1,
            "catchResponse": -1,
            "catchTime": 1642717141246,
            "trialTime": 0
        },
        {
            "exptPart": "trial",
            "trialNumber": 27,
            "roleCurrent": "sender",
            "marblesSampled": 100,
            "probRed": 0.5,
            "lambda": 5,
            "drawnRed": 59,
            "reportedRed": 38,
            "inferredRed": 43,
            "playerTrialScore": 16,
            "oppTrialScore": -16,
            "playerTotalScore": -63,
            "oppTotalScore": -62,
            "waitTime": 2228.181466562911,
            "responseTime": 1642717176155,
            "catchQuestion": "How many <b class=\"r\">red<\/b> marbles did your opponent report drawing? ",
            "catchKey": -1,
            "catchResponse": -1,
            "catchTime": 1642717141246,
            "trialTime": 0
        },
        {
            "exptPart": "trial",
            "trialNumber": 28,
            "roleCurrent": "receiver",
            "marblesSampled": 100,
            "probRed": 0.5,
            "lambda": 5,
            "drawnRed": 48,
            "reportedRed": 40,
            "inferredRed": 35,
            "playerTrialScore": -13,
            "oppTrialScore": 13,
            "playerTotalScore": -76,
            "oppTotalScore": -49,
            "waitTime": 7313.264248215725,
            "responseTime": 1642717189927,
            "catchQuestion": "How many <b class=\"r\">red<\/b> marbles did your opponent report drawing? ",
            "catchKey": 40,
            "catchResponse": 48,
            "catchTime": 1642717189927,
            "trialTime": 0
        },
        {
            "exptPart": "trial",
            "trialNumber": 29,
            "roleCurrent": "sender",
            "marblesSampled": 100,
            "probRed": 0.5,
            "lambda": 5,
            "drawnRed": 67,
            "reportedRed": 67,
            "inferredRed": 75,
            "playerTrialScore": 0,
            "oppTrialScore": -8,
            "playerTotalScore": -76,
            "oppTotalScore": -57,
            "waitTime": 2408.4060360809144,
            "responseTime": 1642718199306,
            "catchQuestion": "How many <b class=\"r\">red<\/b> marbles did your opponent report drawing? ",
            "catchKey": -1,
            "catchResponse": -1,
            "catchTime": 1642717189927,
            "trialTime": 0
        },
        {
            "exptPart": "trial",
            "trialNumber": 30,
            "roleCurrent": "receiver",
            "marblesSampled": 100,
            "probRed": 0.5,
            "lambda": 5,
            "drawnRed": 68,
            "reportedRed": 64,
            "inferredRed": 67,
            "playerTrialScore": -1,
            "oppTrialScore": 1,
            "playerTotalScore": -77,
            "oppTotalScore": -56,
            "waitTime": 5228.334312091976,
            "responseTime": 1642718209995,
            "catchQuestion": "How many <b class=\"r\">red<\/b> marbles did your opponent report drawing? ",
            "catchKey": -1,
            "catchResponse": -1,
            "catchTime": 1642718209995,
            "trialTime": 0
        },
        {
            "exptPart": "trial",
            "trialNumber": 31,
            "roleCurrent": "sender",
            "marblesSampled": 100,
            "probRed": 0.5,
            "lambda": 5,
            "drawnRed": 49,
            "reportedRed": 46,
            "inferredRed": 50,
            "playerTrialScore": 0,
            "oppTrialScore": -1,
            "playerTotalScore": -77,
            "oppTotalScore": -57,
            "waitTime": 2434.056197392308,
            "responseTime": 1642718496624,
            "catchQuestion": "How many <b class=\"r\">red<\/b> marbles did your opponent report drawing? ",
            "catchKey": -1,
            "catchResponse": -1,
            "catchTime": 1642718209995,
            "trialTime": 0
        },
        {
            "exptPart": "trial",
            "trialNumber": 32,
            "roleCurrent": "receiver",
            "marblesSampled": 100,
            "probRed": 0.5,
            "lambda": 5,
            "drawnRed": 20,
            "reportedRed": 18,
            "inferredRed": 7,
            "playerTrialScore": -13,
            "oppTrialScore": 13,
            "playerTotalScore": -90,
            "oppTotalScore": -44,
            "waitTime": 6147.232260570967,
            "responseTime": 1642718509893,
            "catchQuestion": "How many <b class=\"r\">red<\/b> marbles did your opponent report drawing? ",
            "catchKey": -1,
            "catchResponse": -1,
            "catchTime": 1642718209995,
            "trialTime": 0
        },
        {
            "exptPart": "trial",
            "trialNumber": 33,
            "roleCurrent": "sender",
            "marblesSampled": 100,
            "probRed": 0.5,
            "lambda": 5,
            "drawnRed": 48,
            "reportedRed": 41,
            "inferredRed": 46,
            "playerTrialScore": 2,
            "oppTrialScore": -2,
            "playerTotalScore": -88,
            "oppTotalScore": -46,
            "waitTime": 3181.239703649106,
            "responseTime": 1642718521845,
            "catchQuestion": "How many <b class=\"r\">red<\/b> marbles did your opponent report drawing? ",
            "catchKey": -1,
            "catchResponse": -1,
            "catchTime": 1642718209995,
            "trialTime": 0
        },
        {
            "exptPart": "trial",
            "trialNumber": 34,
            "roleCurrent": "receiver",
            "marblesSampled": 100,
            "probRed": 0.5,
            "lambda": 5,
            "drawnRed": 55,
            "reportedRed": 46,
            "inferredRed": 33,
            "playerTrialScore": -22,
            "oppTrialScore": 22,
            "playerTotalScore": -110,
            "oppTotalScore": -24,
            "waitTime": 6115.619196514452,
            "responseTime": 1642718532333,
            "catchQuestion": "How many <b class=\"r\">red<\/b> marbles did your opponent report drawing? ",
            "catchKey": -1,
            "catchResponse": -1,
            "catchTime": 1642718209995,
            "trialTime": 0
        },
        {
            "exptPart": "trial",
            "trialNumber": 35,
            "roleCurrent": "sender",
            "marblesSampled": 100,
            "probRed": 0.5,
            "lambda": 5,
            "drawnRed": 24,
            "reportedRed": 6,
            "inferredRed": 10,
            "playerTrialScore": 14,
            "oppTrialScore": -14,
            "playerTotalScore": -96,
            "oppTotalScore": -38,
            "waitTime": 2734.783826341746,
            "responseTime": 1642718548979,
            "catchQuestion": "How many <b class=\"r\">red<\/b> marbles did your opponent report drawing? ",
            "catchKey": -1,
            "catchResponse": -1,
            "catchTime": 1642718548979,
            "trialTime": 0
        },
        {
            "exptPart": "trial",
            "trialNumber": 36,
            "roleCurrent": "receiver",
            "marblesSampled": 100,
            "probRed": 0.5,
            "lambda": 5,
            "drawnRed": 42,
            "reportedRed": 39,
            "inferredRed": 24,
            "playerTrialScore": -18,
            "oppTrialScore": 18,
            "playerTotalScore": -114,
            "oppTotalScore": -20,
            "waitTime": 6444.712900072056,
            "responseTime": 1642718578686,
            "catchQuestion": "How many <b class=\"r\">red<\/b> marbles did your opponent report drawing? ",
            "catchKey": -1,
            "catchResponse": -1,
            "catchTime": 1642718548979,
            "trialTime": 0
        },
        {
            "exptPart": "trial",
            "trialNumber": 37,
            "roleCurrent": "sender",
            "marblesSampled": 100,
            "probRed": 0.5,
            "lambda": 5,
            "drawnRed": 44,
            "reportedRed": 15,
            "inferredRed": 18,
            "playerTrialScore": 26,
            "oppTrialScore": -26,
            "playerTotalScore": -88,
            "oppTotalScore": -46,
            "waitTime": 2309.0202634114253,
            "responseTime": 1642718608701,
            "catchQuestion": "How many <b class=\"r\">red<\/b> marbles did you actually draw (before any changes)? ",
            "catchKey": 44,
            "catchResponse": 45,
            "catchTime": 1642718608701,
            "trialTime": 0
        },
        {
            "exptPart": "trial",
            "trialNumber": 38,
            "roleCurrent": "receiver",
            "marblesSampled": 100,
            "probRed": 0.5,
            "lambda": 5,
            "drawnRed": 35,
            "reportedRed": 27,
            "inferredRed": 18,
            "playerTrialScore": -17,
            "oppTrialScore": 17,
            "playerTotalScore": -105,
            "oppTotalScore": -29,
            "waitTime": 6653.7994883712545,
            "responseTime": 1642718631510,
            "catchQuestion": "How many <b class=\"r\">red<\/b> marbles did you actually draw (before any changes)? ",
            "catchKey": -1,
            "catchResponse": -1,
            "catchTime": 1642718608701,
            "trialTime": 0
        },
        {
            "exptPart": "trial",
            "trialNumber": 39,
            "roleCurrent": "sender",
            "marblesSampled": 100,
            "probRed": 0.5,
            "lambda": 5,
            "drawnRed": 41,
            "reportedRed": 19,
            "inferredRed": 27,
            "playerTrialScore": 14,
            "oppTrialScore": -14,
            "playerTotalScore": -91,
            "oppTotalScore": -43,
            "waitTime": 3149.5622050035445,
            "responseTime": 1642718649650,
            "catchQuestion": "How many <b class=\"r\">red<\/b> marbles did you actually draw (before any changes)? ",
            "catchKey": 41,
            "catchResponse": 28,
            "catchTime": 1642718649650,
            "trialTime": 0
        },
        {
            "exptPart": "trial",
            "trialNumber": 40,
            "roleCurrent": "receiver",
            "marblesSampled": 100,
            "probRed": 0.5,
            "lambda": 5,
            "drawnRed": 27,
            "reportedRed": 23,
            "inferredRed": 16,
            "playerTrialScore": -11,
            "oppTrialScore": 11,
            "playerTotalScore": -102,
            "oppTotalScore": -32,
            "waitTime": 6890.79507486456,
            "responseTime": 1642718669800,
            "catchQuestion": "How many <b class=\"r\">red<\/b> marbles did you actually draw (before any changes)? ",
            "catchKey": -1,
            "catchResponse": -1,
            "catchTime": 1642718669800,
            "trialTime": 0
        },
        {
            "exptPart": "trial",
            "trialNumber": 41,
            "roleCurrent": "sender",
            "marblesSampled": 100,
            "probRed": 0.5,
            "lambda": 5,
            "drawnRed": 62,
            "reportedRed": 100,
            "inferredRed": 100,
            "playerTrialScore": 0,
            "oppTrialScore": -38,
            "playerTotalScore": -102,
            "oppTotalScore": -70,
            "waitTime": 3246.0536564913523,
            "responseTime": 1642718698343,
            "catchQuestion": "How many <b class=\"r\">red<\/b> marbles did you actually draw (before any changes)? ",
            "catchKey": 62,
            "catchResponse": 62,
            "catchTime": 1642718698343,
            "trialTime": 0
        },
        {
            "exptPart": "trial",
            "trialNumber": 42,
            "roleCurrent": "receiver",
            "marblesSampled": 100,
            "probRed": 0.5,
            "lambda": 5,
            "drawnRed": 49,
            "reportedRed": 44,
            "inferredRed": 33,
            "playerTrialScore": -16,
            "oppTrialScore": 16,
            "playerTotalScore": -118,
            "oppTotalScore": -54,
            "waitTime": 6355.140085373727,
            "responseTime": 1642718713353,
            "catchQuestion": "How many <b class=\"r\">red<\/b> marbles did you actually draw (before any changes)? ",
            "catchKey": -1,
            "catchResponse": -1,
            "catchTime": 1642718698343,
            "trialTime": 0
        },
        {
            "exptPart": "trial",
            "trialNumber": 43,
            "roleCurrent": "sender",
            "marblesSampled": 100,
            "probRed": 0.5,
            "lambda": 5,
            "drawnRed": 61,
            "reportedRed": 32,
            "inferredRed": 38,
            "playerTrialScore": 23,
            "oppTrialScore": -23,
            "playerTotalScore": -95,
            "oppTotalScore": -77,
            "waitTime": 2467.531637288829,
            "responseTime": 1642718729502,
            "catchQuestion": "How many <b class=\"r\">red<\/b> marbles did you actually draw (before any changes)? ",
            "catchKey": -1,
            "catchResponse": -1,
            "catchTime": 1642718698343,
            "trialTime": 0
        },
        {
            "exptPart": "trial",
            "trialNumber": 44,
            "roleCurrent": "receiver",
            "marblesSampled": 100,
            "probRed": 0.5,
            "lambda": 5,
            "drawnRed": 18,
            "reportedRed": 15,
            "inferredRed": 10,
            "playerTrialScore": -8,
            "oppTrialScore": 8,
            "playerTotalScore": -103,
            "oppTotalScore": -69,
            "waitTime": 6869.911902474609,
            "responseTime": 1642718740967,
            "catchQuestion": "How many <b class=\"r\">red<\/b> marbles did you actually draw (before any changes)? ",
            "catchKey": -1,
            "catchResponse": -1,
            "catchTime": 1642718698343,
            "trialTime": 0
        },
        {
            "exptPart": "trial",
            "trialNumber": 45,
            "roleCurrent": "sender",
            "marblesSampled": 100,
            "probRed": 0.5,
            "lambda": 5,
            "drawnRed": 77,
            "reportedRed": 70,
            "inferredRed": 74,
            "playerTrialScore": 3,
            "oppTrialScore": -3,
            "playerTotalScore": -100,
            "oppTotalScore": -72,
            "waitTime": 2577.134720834882,
            "responseTime": 1642718755213,
            "catchQuestion": "How many <b class=\"r\">red<\/b> marbles did you actually draw (before any changes)? ",
            "catchKey": -1,
            "catchResponse": -1,
            "catchTime": 1642718755213,
            "trialTime": 0
        },
        {
            "exptPart": "trial",
            "trialNumber": 46,
            "roleCurrent": "receiver",
            "marblesSampled": 100,
            "probRed": 0.5,
            "lambda": 5,
            "drawnRed": 50,
            "reportedRed": 47,
            "inferredRed": 38,
            "playerTrialScore": -12,
            "oppTrialScore": 12,
            "playerTotalScore": -112,
            "oppTotalScore": -60,
            "waitTime": 5456.888848002309,
            "responseTime": 1642720744710,
            "catchQuestion": "How many <b class=\"r\">red<\/b> marbles did you actually draw (before any changes)? ",
            "catchKey": -1,
            "catchResponse": -1,
            "catchTime": 1642718755213,
            "trialTime": 0
        },
        {
            "exptPart": "trial",
            "trialNumber": 47,
            "roleCurrent": "sender",
            "marblesSampled": 100,
            "probRed": 0.5,
            "lambda": 5,
            "drawnRed": 42,
            "reportedRed": 29,
            "inferredRed": 31,
            "playerTrialScore": 11,
            "oppTrialScore": -11,
            "playerTotalScore": -101,
            "oppTotalScore": -71,
            "waitTime": 2893.0503086909157,
            "responseTime": 1642720787526,
            "catchQuestion": "How many <b class=\"r\">red<\/b> marbles did you actually draw (before any changes)? ",
            "catchKey": -1,
            "catchResponse": -1,
            "catchTime": 1642718755213,
            "trialTime": 0
        },
        {
            "exptPart": "trial",
            "trialNumber": 48,
            "roleCurrent": "receiver",
            "marblesSampled": 100,
            "probRed": 0.5,
            "lambda": 5,
            "drawnRed": 46,
            "reportedRed": 38,
            "inferredRed": 30,
            "playerTrialScore": -16,
            "oppTrialScore": 16,
            "playerTotalScore": -117,
            "oppTotalScore": -55,
            "waitTime": 7488.83986010668,
            "responseTime": 1642720806485,
            "catchQuestion": "How many <b class=\"r\">red<\/b> marbles did you actually draw (before any changes)? ",
            "catchKey": -1,
            "catchResponse": -1,
            "catchTime": 1642718755213,
            "trialTime": 0
        },
        {
            "exptPart": "trial",
            "trialNumber": 49,
            "roleCurrent": "sender",
            "marblesSampled": 100,
            "probRed": 0.5,
            "lambda": 5,
            "drawnRed": 33,
            "reportedRed": 20,
            "inferredRed": 22,
            "playerTrialScore": 11,
            "oppTrialScore": -11,
            "playerTotalScore": -106,
            "oppTotalScore": -66,
            "waitTime": 3124.4958262231,
            "responseTime": 1642720821160,
            "catchQuestion": "How many <b class=\"r\">red<\/b> marbles did you actually draw (before any changes)? ",
            "catchKey": 33,
            "catchResponse": 33,
            "catchTime": 1642720821161,
            "trialTime": 0
        },
        {
            "exptPart": "trial",
            "trialNumber": 50,
            "roleCurrent": "receiver",
            "marblesSampled": 100,
            "probRed": 0.5,
            "lambda": 5,
            "drawnRed": 51,
            "reportedRed": 47,
            "inferredRed": 26,
            "playerTrialScore": -25,
            "oppTrialScore": 25,
            "playerTotalScore": -131,
            "oppTotalScore": -41,
            "waitTime": 5411.793699973028,
            "responseTime": 1642720842843,
            "catchQuestion": "How many <b class=\"r\">red<\/b> marbles did you actually draw (before any changes)? ",
            "catchKey": -1,
            "catchResponse": -1,
            "catchTime": 1642720842843,
            "trialTime": 0
        },
        {
            "exptPart": "trial",
            "trialNumber": 51,
            "roleCurrent": "sender",
            "marblesSampled": 100,
            "probRed": 0.5,
            "lambda": 5,
            "drawnRed": 39,
            "reportedRed": 19,
            "inferredRed": 22,
            "playerTrialScore": 17,
            "oppTrialScore": -17,
            "playerTotalScore": -114,
            "oppTotalScore": -58,
            "waitTime": 3220.802821165445,
            "responseTime": 1642720875884,
            "catchQuestion": "How many <b class=\"r\">red<\/b> marbles did you actually draw (before any changes)? ",
            "catchKey": 39,
            "catchResponse": 56,
            "catchTime": 1642720875884,
            "trialTime": 0
        },
        {
            "exptPart": "trial",
            "trialNumber": 52,
            "roleCurrent": "receiver",
            "marblesSampled": 100,
            "probRed": 0.5,
            "lambda": 5,
            "drawnRed": 9,
            "reportedRed": 5,
            "inferredRed": 15,
            "playerTrialScore": -6,
            "oppTrialScore": 0,
            "playerTotalScore": -120,
            "oppTotalScore": -58,
            "waitTime": 6454.316164556378,
            "responseTime": 1642720906740,
            "catchQuestion": "How many <b class=\"r\">red<\/b> marbles did you actually draw (before any changes)? ",
            "catchKey": -1,
            "catchResponse": -1,
            "catchTime": 1642720875884,
            "trialTime": 0
        },
        {
            "exptPart": "trial",
            "trialNumber": 53,
            "roleCurrent": "sender",
            "marblesSampled": 100,
            "probRed": 0.5,
            "lambda": 5,
            "drawnRed": 77,
            "reportedRed": 82,
            "inferredRed": 87,
            "playerTrialScore": 0,
            "oppTrialScore": -10,
            "playerTotalScore": -120,
            "oppTotalScore": -68,
            "waitTime": 2168.362064251013,
            "responseTime": 1642720916277,
            "catchQuestion": "How many <b class=\"r\">red<\/b> marbles did you actually draw (before any changes)? ",
            "catchKey": -1,
            "catchResponse": -1,
            "catchTime": 1642720875884,
            "trialTime": 0
        },
        {
            "exptPart": "trial",
            "trialNumber": 54,
            "roleCurrent": "receiver",
            "marblesSampled": 100,
            "probRed": 0.5,
            "lambda": 5,
            "drawnRed": 63,
            "reportedRed": 57,
            "inferredRed": 48,
            "playerTrialScore": -15,
            "oppTrialScore": 15,
            "playerTotalScore": -135,
            "oppTotalScore": -53,
            "waitTime": 6227.988395750312,
            "responseTime": 1642720926795,
            "catchQuestion": "How many <b class=\"r\">red<\/b> marbles did you actually draw (before any changes)? ",
            "catchKey": -1,
            "catchResponse": -1,
            "catchTime": 1642720875884,
            "trialTime": 0
        },
        {
            "exptPart": "trial",
            "trialNumber": 55,
            "roleCurrent": "sender",
            "marblesSampled": 100,
            "probRed": 0.5,
            "lambda": 5,
            "drawnRed": 90,
            "reportedRed": 95,
            "inferredRed": 96,
            "playerTrialScore": 0,
            "oppTrialScore": -6,
            "playerTotalScore": -135,
            "oppTotalScore": -59,
            "waitTime": 2519.8462301638638,
            "responseTime": 1642720937863,
            "catchQuestion": "How many <b class=\"r\">red<\/b> marbles did you actually draw (before any changes)? ",
            "catchKey": -1,
            "catchResponse": -1,
            "catchTime": 1642720937863,
            "trialTime": 0
        },
        {
            "exptPart": "trial",
            "trialNumber": 56,
            "roleCurrent": "receiver",
            "marblesSampled": 100,
            "probRed": 0.5,
            "lambda": 5,
            "drawnRed": 61,
            "reportedRed": 54,
            "inferredRed": 38,
            "playerTrialScore": -23,
            "oppTrialScore": 23,
            "playerTotalScore": -158,
            "oppTotalScore": -36,
            "waitTime": 7024.725723885651,
            "responseTime": 1642720951882,
            "catchQuestion": "How many <b class=\"r\">red<\/b> marbles did you actually draw (before any changes)? ",
            "catchKey": -1,
            "catchResponse": -1,
            "catchTime": 1642720937863,
            "trialTime": 0
        },
        {
            "exptPart": "trial",
            "trialNumber": 57,
            "roleCurrent": "sender",
            "marblesSampled": 100,
            "probRed": 0.5,
            "lambda": 5,
            "drawnRed": 17,
            "reportedRed": 8,
            "inferredRed": 14,
            "playerTrialScore": 3,
            "oppTrialScore": -3,
            "playerTotalScore": -155,
            "oppTotalScore": -39,
            "waitTime": 2206.1847544765997,
            "responseTime": 1642720963531,
            "catchQuestion": "How many <b class=\"r\">red<\/b> marbles did you actually draw (before any changes)? ",
            "catchKey": -1,
            "catchResponse": -1,
            "catchTime": 1642720937863,
            "trialTime": 0
        },
        {
            "exptPart": "trial",
            "trialNumber": 58,
            "roleCurrent": "receiver",
            "marblesSampled": 100,
            "probRed": 0.5,
            "lambda": 5,
            "drawnRed": 67,
            "reportedRed": 60,
            "inferredRed": 45,
            "playerTrialScore": -22,
            "oppTrialScore": 22,
            "playerTotalScore": -177,
            "oppTotalScore": -17,
            "waitTime": 7407.5978799813765,
            "responseTime": 1642720974639,
            "catchQuestion": "How many <b class=\"r\">red<\/b> marbles did you actually draw (before any changes)? ",
            "catchKey": -1,
            "catchResponse": -1,
            "catchTime": 1642720937863,
            "trialTime": 0
        },
        {
            "exptPart": "trial",
            "trialNumber": 59,
            "roleCurrent": "sender",
            "marblesSampled": 100,
            "probRed": 0.5,
            "lambda": 5,
            "drawnRed": 83,
            "reportedRed": 90,
            "inferredRed": 95,
            "playerTrialScore": 0,
            "oppTrialScore": -12,
            "playerTotalScore": -177,
            "oppTotalScore": -29,
            "waitTime": 2418.590161788392,
            "responseTime": 1642720984572,
            "catchQuestion": "How many <b class=\"r\">red<\/b> marbles did you actually draw (before any changes)? ",
            "catchKey": -1,
            "catchResponse": -1,
            "catchTime": 1642720937863,
            "trialTime": 0
        },
        {
            "exptPart": "trial",
            "trialNumber": 60,
            "roleCurrent": "receiver",
            "marblesSampled": 100,
            "probRed": 0.5,
            "lambda": 5,
            "drawnRed": 19,
            "reportedRed": 15,
            "inferredRed": 25,
            "playerTrialScore": -6,
            "oppTrialScore": 0,
            "playerTotalScore": -183,
            "oppTotalScore": -29,
            "waitTime": 7209.395291760306,
            "responseTime": 1642720998126,
            "catchQuestion": "How many <b class=\"r\">red<\/b> marbles did you actually draw (before any changes)? ",
            "catchKey": -1,
            "catchResponse": -1,
            "catchTime": 1642720998126,
            "trialTime": 0
        },
        {
            "exptPart": "trial",
            "trialNumber": 61,
            "roleCurrent": "sender",
            "marblesSampled": 100,
            "probRed": 0.5,
            "lambda": 5,
            "drawnRed": 27,
            "reportedRed": 20,
            "inferredRed": 25,
            "playerTrialScore": 2,
            "oppTrialScore": -2,
            "playerTotalScore": -181,
            "oppTotalScore": -31,
            "waitTime": 2846.757434827455,
            "responseTime": 1642721009231,
            "catchQuestion": "How many <b class=\"r\">red<\/b> marbles did you actually draw (before any changes)? ",
            "catchKey": 27,
            "catchResponse": 20,
            "catchTime": 1642721009231,
            "trialTime": 0
        },
        {
            "exptPart": "trial",
            "trialNumber": 62,
            "roleCurrent": "receiver",
            "marblesSampled": 100,
            "probRed": 0.5,
            "lambda": 5,
            "drawnRed": 52,
            "reportedRed": 48,
            "inferredRed": 43,
            "playerTrialScore": -9,
            "oppTrialScore": 9,
            "playerTotalScore": -190,
            "oppTotalScore": -22,
            "waitTime": 6514.484452843428,
            "responseTime": 1642721028302,
            "catchQuestion": "How many <b class=\"r\">red<\/b> marbles did you actually draw (before any changes)? ",
            "catchKey": -1,
            "catchResponse": -1,
            "catchTime": 1642721009231,
            "trialTime": 0
        },
        {
            "exptPart": "trial",
            "trialNumber": 63,
            "roleCurrent": "sender",
            "marblesSampled": 100,
            "probRed": 0.5,
            "lambda": 5,
            "drawnRed": 72,
            "reportedRed": 65,
            "inferredRed": 73,
            "playerTrialScore": 0,
            "oppTrialScore": -1,
            "playerTotalScore": -190,
            "oppTotalScore": -23,
            "waitTime": 2915.7982798427693,
            "responseTime": 1642721041290,
            "catchQuestion": "How many <b class=\"r\">red<\/b> marbles did you actually draw (before any changes)? ",
            "catchKey": -1,
            "catchResponse": -1,
            "catchTime": 1642721009231,
            "trialTime": 0
        },
        {
            "exptPart": "trial",
            "trialNumber": 64,
            "roleCurrent": "receiver",
            "marblesSampled": 100,
            "probRed": 0.5,
            "lambda": 5,
            "drawnRed": 48,
            "reportedRed": 47,
            "inferredRed": 35,
            "playerTrialScore": -13,
            "oppTrialScore": 13,
            "playerTotalScore": -203,
            "oppTotalScore": -10,
            "waitTime": 5609.731659547948,
            "responseTime": 1642721071614,
            "catchQuestion": "How many <b class=\"r\">red<\/b> marbles did you actually draw (before any changes)? ",
            "catchKey": -1,
            "catchResponse": -1,
            "catchTime": 1642721009231,
            "trialTime": 0
        },
        {
            "exptPart": "trial",
            "trialNumber": 65,
            "roleCurrent": "sender",
            "marblesSampled": 100,
            "probRed": 0.5,
            "lambda": 5,
            "drawnRed": 61,
            "reportedRed": 57,
            "inferredRed": 64,
            "playerTrialScore": 0,
            "oppTrialScore": -3,
            "playerTotalScore": -203,
            "oppTotalScore": -13,
            "waitTime": 2090.269932091498,
            "responseTime": 1642721083567,
            "catchQuestion": "How many <b class=\"r\">red<\/b> marbles did you actually draw (before any changes)? ",
            "catchKey": -1,
            "catchResponse": -1,
            "catchTime": 1642721083567,
            "trialTime": 0
        },
        {
            "exptPart": "trial",
            "trialNumber": 66,
            "roleCurrent": "receiver",
            "marblesSampled": 100,
            "probRed": 0.5,
            "lambda": 5,
            "drawnRed": 26,
            "reportedRed": 21,
            "inferredRed": 61,
            "playerTrialScore": -35,
            "oppTrialScore": 0,
            "playerTotalScore": -238,
            "oppTotalScore": -13,
            "waitTime": 6180.356954178402,
            "responseTime": 1642721098068,
            "catchQuestion": "How many <b class=\"r\">red<\/b> marbles did you actually draw (before any changes)? ",
            "catchKey": -1,
            "catchResponse": -1,
            "catchTime": 1642721083567,
            "trialTime": 0
        },
        {
            "exptPart": "trial",
            "trialNumber": 67,
            "roleCurrent": "sender",
            "marblesSampled": 100,
            "probRed": 0.5,
            "lambda": 5,
            "drawnRed": 53,
            "reportedRed": 47,
            "inferredRed": 52,
            "playerTrialScore": 1,
            "oppTrialScore": -1,
            "playerTotalScore": -237,
            "oppTotalScore": -14,
            "waitTime": 2410.596092127701,
            "responseTime": 1642721108099,
            "catchQuestion": "How many <b class=\"r\">red<\/b> marbles did you actually draw (before any changes)? ",
            "catchKey": -1,
            "catchResponse": -1,
            "catchTime": 1642721083567,
            "trialTime": 0
        },
        {
            "exptPart": "trial",
            "trialNumber": 68,
            "roleCurrent": "receiver",
            "marblesSampled": 100,
            "probRed": 0.5,
            "lambda": 5,
            "drawnRed": 51,
            "reportedRed": 44,
            "inferredRed": 56,
            "playerTrialScore": -5,
            "oppTrialScore": 0,
            "playerTotalScore": -242,
            "oppTotalScore": -14,
            "waitTime": 5513.348527337426,
            "responseTime": 1642721117312,
            "catchQuestion": "How many <b class=\"r\">red<\/b> marbles did you actually draw (before any changes)? ",
            "catchKey": -1,
            "catchResponse": -1,
            "catchTime": 1642721083567,
            "trialTime": 0
        },
        {
            "exptPart": "trial",
            "trialNumber": 69,
            "roleCurrent": "sender",
            "marblesSampled": 100,
            "probRed": 0.5,
            "lambda": 5,
            "drawnRed": 74,
            "reportedRed": 59,
            "inferredRed": 63,
            "playerTrialScore": 11,
            "oppTrialScore": -11,
            "playerTotalScore": -231,
            "oppTotalScore": -25,
            "waitTime": 2698.1476164284572,
            "responseTime": 1642721129055,
            "catchQuestion": "How many <b class=\"r\">red<\/b> marbles did you actually draw (before any changes)? ",
            "catchKey": -1,
            "catchResponse": -1,
            "catchTime": 1642721083567,
            "trialTime": 0
        },
        {
            "exptPart": "trial",
            "trialNumber": 70,
            "roleCurrent": "receiver",
            "marblesSampled": 100,
            "probRed": 0.5,
            "lambda": 5,
            "drawnRed": 38,
            "reportedRed": 35,
            "inferredRed": 26,
            "playerTrialScore": -12,
            "oppTrialScore": 12,
            "playerTotalScore": -243,
            "oppTotalScore": -13,
            "waitTime": 5289.699624324033,
            "responseTime": 1642721140706,
            "catchQuestion": "How many <b class=\"r\">red<\/b> marbles did you actually draw (before any changes)? ",
            "catchKey": -1,
            "catchResponse": -1,
            "catchTime": 1642721140706,
            "trialTime": 0
        },
        {
            "exptPart": "trial",
            "trialNumber": 71,
            "roleCurrent": "sender",
            "marblesSampled": 100,
            "probRed": 0.5,
            "lambda": 5,
            "drawnRed": 20,
            "reportedRed": 34,
            "inferredRed": 41,
            "playerTrialScore": 0,
            "oppTrialScore": -21,
            "playerTotalScore": -243,
            "oppTotalScore": -34,
            "waitTime": 2348.4932118954116,
            "responseTime": 1642721158147,
            "catchQuestion": "How many <b class=\"r\">red<\/b> marbles did you actually draw (before any changes)? ",
            "catchKey": -1,
            "catchResponse": -1,
            "catchTime": 1642721140706,
            "trialTime": 0
        },
        {
            "exptPart": "trial",
            "trialNumber": 72,
            "roleCurrent": "receiver",
            "marblesSampled": 100,
            "probRed": 0.5,
            "lambda": 5,
            "drawnRed": 61,
            "reportedRed": 54,
            "inferredRed": 38,
            "playerTrialScore": -23,
            "oppTrialScore": 23,
            "playerTotalScore": -266,
            "oppTotalScore": -11,
            "waitTime": 5937.060106736701,
            "responseTime": 1642721170597,
            "catchQuestion": "How many <b class=\"r\">red<\/b> marbles did you actually draw (before any changes)? ",
            "catchKey": -1,
            "catchResponse": -1,
            "catchTime": 1642721140706,
            "trialTime": 0
        },
        {
            "exptPart": "trial",
            "trialNumber": 73,
            "roleCurrent": "sender",
            "marblesSampled": 100,
            "probRed": 0.5,
            "lambda": 5,
            "drawnRed": 70,
            "reportedRed": 66,
            "inferredRed": 71,
            "playerTrialScore": 0,
            "oppTrialScore": -1,
            "playerTotalScore": -266,
            "oppTotalScore": -12,
            "waitTime": 2283.894332216395,
            "responseTime": 1642721183582,
            "catchQuestion": "How many <b class=\"r\">red<\/b> marbles did you actually draw (before any changes)? ",
            "catchKey": -1,
            "catchResponse": -1,
            "catchTime": 1642721140706,
            "trialTime": 0
        },
        {
            "exptPart": "trial",
            "trialNumber": 74,
            "roleCurrent": "receiver",
            "marblesSampled": 100,
            "probRed": 0.5,
            "lambda": 5,
            "drawnRed": 58,
            "reportedRed": 54,
            "inferredRed": 53,
            "playerTrialScore": -5,
            "oppTrialScore": 5,
            "playerTotalScore": -271,
            "oppTotalScore": -7,
            "waitTime": 5167.960995732157,
            "responseTime": 1642724644383,
            "catchQuestion": "How many <b class=\"r\">red<\/b> marbles did you actually draw (before any changes)? ",
            "catchKey": -1,
            "catchResponse": -1,
            "catchTime": 1642721140706,
            "trialTime": 0
        },
        {
            "exptPart": "trial",
            "trialNumber": 75,
            "roleCurrent": "sender",
            "marblesSampled": 100,
            "probRed": 0.5,
            "lambda": 5,
            "drawnRed": 54,
            "reportedRed": 45,
            "inferredRed": 50,
            "playerTrialScore": 4,
            "oppTrialScore": -4,
            "playerTotalScore": -267,
            "oppTotalScore": -11,
            "waitTime": 2718.876784102071,
            "responseTime": 1642724657689,
            "catchQuestion": "How many <b class=\"r\">red<\/b> marbles did you actually draw (before any changes)? ",
            "catchKey": -1,
            "catchResponse": -1,
            "catchTime": 1642724657689,
            "trialTime": 0
        },
        {
            "exptPart": "trial",
            "trialNumber": 76,
            "roleCurrent": "receiver",
            "marblesSampled": 100,
            "probRed": 0.5,
            "lambda": 5,
            "drawnRed": 78,
            "reportedRed": 66,
            "inferredRed": 55,
            "playerTrialScore": -23,
            "oppTrialScore": 23,
            "playerTotalScore": -290,
            "oppTotalScore": 12,
            "waitTime": 6657.642696449551,
            "responseTime": 1642724671089,
            "catchQuestion": "How many <b class=\"r\">red<\/b> marbles did you actually draw (before any changes)? ",
            "catchKey": -1,
            "catchResponse": -1,
            "catchTime": 1642724657689,
            "trialTime": 0
        },
        {
            "exptPart": "trial",
            "trialNumber": 77,
            "roleCurrent": "sender",
            "marblesSampled": 100,
            "probRed": 0.5,
            "lambda": 5,
            "drawnRed": 59,
            "reportedRed": 52,
            "inferredRed": 55,
            "playerTrialScore": 4,
            "oppTrialScore": -4,
            "playerTotalScore": -286,
            "oppTotalScore": 8,
            "waitTime": 2349.4692180983066,
            "responseTime": 1642724712355,
            "catchQuestion": "How many <b class=\"r\">red<\/b> marbles did you actually draw (before any changes)? ",
            "catchKey": -1,
            "catchResponse": -1,
            "catchTime": 1642724657689,
            "trialTime": 0
        },
        {
            "exptPart": "trial",
            "trialNumber": 78,
            "roleCurrent": "receiver",
            "marblesSampled": 100,
            "probRed": 0.5,
            "lambda": 5,
            "drawnRed": 63,
            "reportedRed": 58,
            "inferredRed": 44,
            "playerTrialScore": -19,
            "oppTrialScore": 19,
            "playerTotalScore": -305,
            "oppTotalScore": 27,
            "waitTime": 5332.984408547402,
            "responseTime": 1642724891081,
            "catchQuestion": "How many <b class=\"r\">red<\/b> marbles did you actually draw (before any changes)? ",
            "catchKey": -1,
            "catchResponse": -1,
            "catchTime": 1642724657689,
            "trialTime": 0
        },
        {
            "exptPart": "trial",
            "trialNumber": 79,
            "roleCurrent": "sender",
            "marblesSampled": 100,
            "probRed": 0.5,
            "lambda": 5,
            "drawnRed": 22,
            "reportedRed": 16,
            "inferredRed": 19,
            "playerTrialScore": 3,
            "oppTrialScore": -3,
            "playerTotalScore": -302,
            "oppTotalScore": 24,
            "waitTime": 2785.9693713415427,
            "responseTime": 1642724902977,
            "catchQuestion": "How many <b class=\"r\">red<\/b> marbles did you actually draw (before any changes)? ",
            "catchKey": -1,
            "catchResponse": -1,
            "catchTime": 1642724657689,
            "trialTime": 0
        },
        {
            "exptPart": "trial",
            "trialNumber": 80,
            "roleCurrent": "receiver",
            "marblesSampled": 100,
            "probRed": 0.5,
            "lambda": 5,
            "drawnRed": 27,
            "reportedRed": 21,
            "inferredRed": 19,
            "playerTrialScore": -8,
            "oppTrialScore": 8,
            "playerTotalScore": -310,
            "oppTotalScore": 32,
            "waitTime": 5369.680148838985,
            "responseTime": 1642724910744,
            "catchQuestion": "How many <b class=\"r\">red<\/b> marbles did you actually draw (before any changes)? ",
            "catchKey": -1,
            "catchResponse": -1,
            "catchTime": 1642724910744,
            "trialTime": 0
        },
        {
            "exptPart": "trial",
            "trialNumber": 81,
            "roleCurrent": "sender",
            "marblesSampled": 100,
            "probRed": 0.5,
            "lambda": 5,
            "drawnRed": 35,
            "reportedRed": 32,
            "inferredRed": 40,
            "playerTrialScore": 0,
            "oppTrialScore": -5,
            "playerTotalScore": -310,
            "oppTotalScore": 27,
            "waitTime": 2383.525134783186,
            "responseTime": 1642724920888,
            "catchQuestion": "How many <b class=\"r\">red<\/b> marbles did you actually draw (before any changes)? ",
            "catchKey": -1,
            "catchResponse": -1,
            "catchTime": 1642724910744,
            "trialTime": 0
        },
        {
            "exptPart": "trial",
            "trialNumber": 82,
            "roleCurrent": "receiver",
            "marblesSampled": 100,
            "probRed": 0.5,
            "lambda": 5,
            "drawnRed": 44,
            "reportedRed": 38,
            "inferredRed": 22,
            "playerTrialScore": -22,
            "oppTrialScore": 22,
            "playerTotalScore": -332,
            "oppTotalScore": 49,
            "waitTime": 6593.223823431413,
            "responseTime": 1642724934661,
            "catchQuestion": "How many <b class=\"r\">red<\/b> marbles did you actually draw (before any changes)? ",
            "catchKey": -1,
            "catchResponse": -1,
            "catchTime": 1642724910744,
            "trialTime": 0
        },
        {
            "exptPart": "trial",
            "trialNumber": 83,
            "roleCurrent": "sender",
            "marblesSampled": 100,
            "probRed": 0.5,
            "lambda": 5,
            "drawnRed": 75,
            "reportedRed": 80,
            "inferredRed": 86,
            "playerTrialScore": 0,
            "oppTrialScore": -11,
            "playerTotalScore": -332,
            "oppTotalScore": 38,
            "waitTime": 2394.812973469734,
            "responseTime": 1642724947681,
            "catchQuestion": "How many <b class=\"r\">red<\/b> marbles did you actually draw (before any changes)? ",
            "catchKey": -1,
            "catchResponse": -1,
            "catchTime": 1642724910744,
            "trialTime": 0
        },
        {
            "exptPart": "trial",
            "trialNumber": 84,
            "roleCurrent": "receiver",
            "marblesSampled": 100,
            "probRed": 0.5,
            "lambda": 5,
            "drawnRed": 36,
            "reportedRed": 26,
            "inferredRed": 44,
            "playerTrialScore": -8,
            "oppTrialScore": 0,
            "playerTotalScore": -340,
            "oppTotalScore": 38,
            "waitTime": 5834.334608760739,
            "responseTime": 1642724957455,
            "catchQuestion": "How many <b class=\"r\">red<\/b> marbles did you actually draw (before any changes)? ",
            "catchKey": -1,
            "catchResponse": -1,
            "catchTime": 1642724910744,
            "trialTime": 0
        },
        {
            "exptPart": "trial",
            "trialNumber": 85,
            "roleCurrent": "sender",
            "marblesSampled": 100,
            "probRed": 0.5,
            "lambda": 5,
            "drawnRed": 20,
            "reportedRed": 17,
            "inferredRed": 26,
            "playerTrialScore": 0,
            "oppTrialScore": -6,
            "playerTotalScore": -340,
            "oppTotalScore": 32,
            "waitTime": 2610.202890018634,
            "responseTime": 1642724971332,
            "catchQuestion": "How many <b class=\"r\">red<\/b> marbles did you actually draw (before any changes)? ",
            "catchKey": -1,
            "catchResponse": -1,
            "catchTime": 1642724971332,
            "trialTime": 0
        },
        {
            "exptPart": "trial",
            "trialNumber": 86,
            "roleCurrent": "receiver",
            "marblesSampled": 100,
            "probRed": 0.5,
            "lambda": 5,
            "drawnRed": 78,
            "reportedRed": 71,
            "inferredRed": 88,
            "playerTrialScore": -10,
            "oppTrialScore": 0,
            "playerTotalScore": -350,
            "oppTotalScore": 32,
            "waitTime": 5572.439699559509,
            "responseTime": 1642724989357,
            "catchQuestion": "How many <b class=\"r\">red<\/b> marbles did you actually draw (before any changes)? ",
            "catchKey": -1,
            "catchResponse": -1,
            "catchTime": 1642724971332,
            "trialTime": 0
        },
        {
            "exptPart": "trial",
            "trialNumber": 87,
            "roleCurrent": "sender",
            "marblesSampled": 100,
            "probRed": 0.5,
            "lambda": 5,
            "drawnRed": 19,
            "reportedRed": 19,
            "inferredRed": 28,
            "playerTrialScore": 0,
            "oppTrialScore": -9,
            "playerTotalScore": -350,
            "oppTotalScore": 23,
            "waitTime": 2150.991282094419,
            "responseTime": 1642724996970,
            "catchQuestion": "How many <b class=\"r\">red<\/b> marbles did you actually draw (before any changes)? ",
            "catchKey": -1,
            "catchResponse": -1,
            "catchTime": 1642724971332,
            "trialTime": 0
        },
        {
            "exptPart": "trial",
            "trialNumber": 88,
            "roleCurrent": "receiver",
            "marblesSampled": 100,
            "probRed": 0.5,
            "lambda": 5,
            "drawnRed": 83,
            "reportedRed": 77,
            "inferredRed": 35,
            "playerTrialScore": -48,
            "oppTrialScore": 48,
            "playerTotalScore": -398,
            "oppTotalScore": 71,
            "waitTime": 5537.466061334946,
            "responseTime": 1642725005288,
            "catchQuestion": "How many <b class=\"r\">red<\/b> marbles did you actually draw (before any changes)? ",
            "catchKey": -1,
            "catchResponse": -1,
            "catchTime": 1642724971332,
            "trialTime": 0
        },
        {
            "exptPart": "trial",
            "trialNumber": 89,
            "roleCurrent": "sender",
            "marblesSampled": 100,
            "probRed": 0.5,
            "lambda": 5,
            "drawnRed": 74,
            "reportedRed": 64,
            "inferredRed": 71,
            "playerTrialScore": 3,
            "oppTrialScore": -3,
            "playerTotalScore": -395,
            "oppTotalScore": 68,
            "waitTime": 2954.0763310768416,
            "responseTime": 1642725016727,
            "catchQuestion": "How many <b class=\"r\">red<\/b> marbles did you actually draw (before any changes)? ",
            "catchKey": -1,
            "catchResponse": -1,
            "catchTime": 1642724971332,
            "trialTime": 0
        },
        {
            "exptPart": "trial",
            "trialNumber": 90,
            "roleCurrent": "receiver",
            "marblesSampled": 100,
            "probRed": 0.5,
            "lambda": 5,
            "drawnRed": 39,
            "reportedRed": 35,
            "inferredRed": 87,
            "playerTrialScore": -48,
            "oppTrialScore": 0,
            "playerTotalScore": -443,
            "oppTotalScore": 68,
            "waitTime": 5396.027955196192,
            "responseTime": 1642725025343,
            "catchQuestion": "How many <b class=\"r\">red<\/b> marbles did you actually draw (before any changes)? ",
            "catchKey": -1,
            "catchResponse": -1,
            "catchTime": 1642725025343,
            "trialTime": 0
        },
        {
            "exptPart": "trial",
            "trialNumber": 91,
            "roleCurrent": "sender",
            "marblesSampled": 100,
            "probRed": 0.5,
            "lambda": 5,
            "drawnRed": 18,
            "reportedRed": 12,
            "inferredRed": 17,
            "playerTrialScore": 1,
            "oppTrialScore": -1,
            "playerTotalScore": -442,
            "oppTotalScore": 67,
            "waitTime": 2242.7021231560043,
            "responseTime": 1642725036961,
            "catchQuestion": "How many <b class=\"r\">red<\/b> marbles did you actually draw (before any changes)? ",
            "catchKey": -1,
            "catchResponse": -1,
            "catchTime": 1642725025343,
            "trialTime": 0
        },
        {
            "exptPart": "trial",
            "trialNumber": 92,
            "roleCurrent": "receiver",
            "marblesSampled": 100,
            "probRed": 0.5,
            "lambda": 5,
            "drawnRed": 23,
            "reportedRed": 17,
            "inferredRed": 45,
            "playerTrialScore": -22,
            "oppTrialScore": 0,
            "playerTotalScore": -464,
            "oppTotalScore": 67,
            "waitTime": 5212.042922110441,
            "responseTime": 1642725047689,
            "catchQuestion": "How many <b class=\"r\">red<\/b> marbles did you actually draw (before any changes)? ",
            "catchKey": -1,
            "catchResponse": -1,
            "catchTime": 1642725025343,
            "trialTime": 0
        },
        {
            "exptPart": "trial",
            "trialNumber": 93,
            "roleCurrent": "sender",
            "marblesSampled": 100,
            "probRed": 0.5,
            "lambda": 5,
            "drawnRed": 30,
            "reportedRed": 22,
            "inferredRed": 28,
            "playerTrialScore": 2,
            "oppTrialScore": -2,
            "playerTotalScore": -462,
            "oppTotalScore": 65,
            "waitTime": 3209.890602992371,
            "responseTime": 1642725059936,
            "catchQuestion": "How many <b class=\"r\">red<\/b> marbles did you actually draw (before any changes)? ",
            "catchKey": -1,
            "catchResponse": -1,
            "catchTime": 1642725025343,
            "trialTime": 0
        },
        {
            "exptPart": "trial",
            "trialNumber": 94,
            "roleCurrent": "receiver",
            "marblesSampled": 100,
            "probRed": 0.5,
            "lambda": 5,
            "drawnRed": 49,
            "reportedRed": 43,
            "inferredRed": 55,
            "playerTrialScore": -6,
            "oppTrialScore": 0,
            "playerTotalScore": -468,
            "oppTotalScore": 65,
            "waitTime": 6224.5948543459535,
            "responseTime": 1642725072472,
            "catchQuestion": "How many <b class=\"r\">red<\/b> marbles did you actually draw (before any changes)? ",
            "catchKey": -1,
            "catchResponse": -1,
            "catchTime": 1642725025343,
            "trialTime": 0
        },
        {
            "exptPart": "trial",
            "trialNumber": 95,
            "roleCurrent": "sender",
            "marblesSampled": 100,
            "probRed": 0.5,
            "lambda": 5,
            "drawnRed": 57,
            "reportedRed": 52,
            "inferredRed": 58,
            "playerTrialScore": 0,
            "oppTrialScore": -1,
            "playerTotalScore": -468,
            "oppTotalScore": 64,
            "waitTime": 3163.647879552855,
            "responseTime": 1642725083321,
            "catchQuestion": "How many <b class=\"r\">red<\/b> marbles did you actually draw (before any changes)? ",
            "catchKey": -1,
            "catchResponse": -1,
            "catchTime": 1642725083321,
            "trialTime": 0
        },
        {
            "exptPart": "trial",
            "trialNumber": 96,
            "roleCurrent": "receiver",
            "marblesSampled": 100,
            "probRed": 0.5,
            "lambda": 5,
            "drawnRed": 21,
            "reportedRed": 16,
            "inferredRed": 52,
            "playerTrialScore": -31,
            "oppTrialScore": 0,
            "playerTotalScore": -499,
            "oppTotalScore": 64,
            "waitTime": 6797.063758104348,
            "responseTime": 1642725105430,
            "catchQuestion": "How many <b class=\"r\">red<\/b> marbles did you actually draw (before any changes)? ",
            "catchKey": -1,
            "catchResponse": -1,
            "catchTime": 1642725083321,
            "trialTime": 0
        },
        {
            "exptPart": "trial",
            "trialNumber": 97,
            "roleCurrent": "sender",
            "marblesSampled": 100,
            "probRed": 0.5,
            "lambda": 5,
            "drawnRed": 37,
            "reportedRed": 24,
            "inferredRed": 29,
            "playerTrialScore": 8,
            "oppTrialScore": -8,
            "playerTotalScore": -491,
            "oppTotalScore": 56,
            "waitTime": 2494.2495584441467,
            "responseTime": 1642725119124,
            "catchQuestion": "How many <b class=\"r\">red<\/b> marbles did you actually draw (before any changes)? ",
            "catchKey": -1,
            "catchResponse": -1,
            "catchTime": 1642725083321,
            "trialTime": 0
        },
        {
            "exptPart": "trial",
            "trialNumber": 98,
            "roleCurrent": "receiver",
            "marblesSampled": 100,
            "probRed": 0.5,
            "lambda": 5,
            "drawnRed": 50,
            "reportedRed": 45,
            "inferredRed": 75,
            "playerTrialScore": -25,
            "oppTrialScore": 0,
            "playerTotalScore": -516,
            "oppTotalScore": 56,
            "waitTime": 5524.512466187242,
            "responseTime": 1642725131002,
            "catchQuestion": "How many <b class=\"r\">red<\/b> marbles did you actually draw (before any changes)? ",
            "catchKey": -1,
            "catchResponse": -1,
            "catchTime": 1642725083321,
            "trialTime": 0
        },
        {
            "exptPart": "trial",
            "trialNumber": 99,
            "roleCurrent": "sender",
            "marblesSampled": 100,
            "probRed": 0.5,
            "lambda": 5,
            "drawnRed": 77,
            "reportedRed": 74,
            "inferredRed": 79,
            "playerTrialScore": 0,
            "oppTrialScore": -2,
            "playerTotalScore": -516,
            "oppTotalScore": 54,
            "waitTime": 2678.407723988336,
            "responseTime": 1642725139740,
            "catchQuestion": "How many <b class=\"r\">red<\/b> marbles did you actually draw (before any changes)? ",
            "catchKey": -1,
            "catchResponse": -1,
            "catchTime": 1642725083321,
            "trialTime": 0
        },
        {
            "exptPart": "trial",
            "trialNumber": 100,
            "roleCurrent": "receiver",
            "marblesSampled": 100,
            "probRed": 0.5,
            "lambda": 5,
            "drawnRed": 41,
            "reportedRed": 35,
            "inferredRed": 25,
            "playerTrialScore": -16,
            "oppTrialScore": 16,
            "playerTotalScore": -532,
            "oppTotalScore": 70,
            "waitTime": 5350.461555411849,
            "responseTime": 1642725148592,
            "catchQuestion": "How many <b class=\"r\">red<\/b> marbles did you actually draw (before any changes)? ",
            "catchKey": -1,
            "catchResponse": -1,
            "catchTime": 1642725148592,
            "trialTime": 0
        }
    ]
}