{
    "client": {
        "type": "sona",
        "experiment_id": 2228,
        "credit_token": "b315147ae43241ea9c65086cb510cfb7",
        "survey_code": "40571",
        "sid": "sona-40571",
        "window": {
            "width": 1536,
            "height": 754
        },
        "screen": {
            "width": 1536,
            "height": 864
        },
        "userAgent": "Mozilla\/5.0 (Windows NT 10.0; Win64; x64) AppleWebKit\/537.36 (KHTML, like Gecko) Chrome\/97.0.4692.71 Safari\/537.36",
        "score": 0,
        "bonus": 0
    },
    "expt": {
        "saveURL": "submit.simple.php",
        "trials": 100,
        "practiceTrials": 2,
        "marblesSampled": 100,
        "probRed": 0.5,
        "lambdaAI": 5,
        "roleFirst": "receiver",
        "roles": [
            "sender",
            "receiver"
        ],
        "cost": "linear",
        "goal": "over",
        "catchTrials": [
            64,
            84,
            63,
            32,
            57,
            70,
            0,
            83,
            55,
            14
        ],
        "scoreTotal": {
            "player": 5,
            "opp": -391
        },
        "sona": {
            "experiment_id": 2228,
            "credit_token": "b315147ae43241ea9c65086cb510cfb7"
        },
        "pilot": false,
        "debug": false
    },
    "trials": [
        {
            "exptPart": "practice",
            "trialNumber": 1,
            "roleCurrent": "sender",
            "marblesSampled": 100,
            "probRed": 0.5,
            "lambda": 5,
            "drawnRed": 38,
            "reportedRed": 39,
            "inferredRed": 33,
            "playerTrialScore": 0,
            "oppTrialScore": -5,
            "playerTotalScore": 0,
            "oppTotalScore": -5,
            "waitTime": 2992.9022174305046,
            "responseTime": 1642613128985,
            "catchQuestion": "How many <b class=\"r\">red<\/b> marbles did you actually draw (before any changes)? ",
            "catchKey": 38,
            "catchResponse": 38,
            "catchTime": 1642613128985,
            "trialTime": 0
        },
        {
            "exptPart": "practice",
            "trialNumber": 2,
            "roleCurrent": "receiver",
            "marblesSampled": 100,
            "probRed": 0.5,
            "lambda": 5,
            "drawnRed": 76,
            "reportedRed": 81,
            "inferredRed": 65,
            "playerTrialScore": -11,
            "oppTrialScore": 0,
            "playerTotalScore": -11,
            "oppTotalScore": -5,
            "waitTime": 5563.075395100017,
            "responseTime": 1642613210468,
            "catchQuestion": "How many <b class=\"r\">red<\/b> marbles did your opponent report drawing? ",
            "catchKey": 81,
            "catchResponse": 81,
            "catchTime": 1642613210468,
            "trialTime": 0
        },
        {
            "exptPart": "trial",
            "trialNumber": 1,
            "roleCurrent": "receiver",
            "marblesSampled": 100,
            "probRed": 0.5,
            "lambda": 5,
            "drawnRed": 82,
            "reportedRed": 85,
            "inferredRed": 73,
            "playerTrialScore": -9,
            "oppTrialScore": 0,
            "playerTotalScore": -9,
            "oppTotalScore": 0,
            "waitTime": 5511.445145295276,
            "responseTime": 1642613246109,
            "catchQuestion": "How many <b class=\"r\">red<\/b> marbles did your opponent report drawing? ",
            "catchKey": 85,
            "catchResponse": 85,
            "catchTime": 1642613246110,
            "trialTime": 0
        },
        {
            "exptPart": "trial",
            "trialNumber": 2,
            "roleCurrent": "sender",
            "marblesSampled": 100,
            "probRed": 0.5,
            "lambda": 5,
            "drawnRed": 46,
            "reportedRed": 61,
            "inferredRed": 59,
            "playerTrialScore": 13,
            "oppTrialScore": -13,
            "playerTotalScore": 4,
            "oppTotalScore": -13,
            "waitTime": 2714.147135670236,
            "responseTime": 1642613319690,
            "catchQuestion": "How many <b class=\"r\">red<\/b> marbles did your opponent report drawing? ",
            "catchKey": -1,
            "catchResponse": -1,
            "catchTime": 1642613246110,
            "trialTime": 0
        },
        {
            "exptPart": "trial",
            "trialNumber": 3,
            "roleCurrent": "receiver",
            "marblesSampled": 100,
            "probRed": 0.5,
            "lambda": 5,
            "drawnRed": 68,
            "reportedRed": 76,
            "inferredRed": 69,
            "playerTrialScore": -1,
            "oppTrialScore": 1,
            "playerTotalScore": 3,
            "oppTotalScore": -12,
            "waitTime": 5223.019653984244,
            "responseTime": 1642613333655,
            "catchQuestion": "How many <b class=\"r\">red<\/b> marbles did your opponent report drawing? ",
            "catchKey": -1,
            "catchResponse": -1,
            "catchTime": 1642613246110,
            "trialTime": 0
        },
        {
            "exptPart": "trial",
            "trialNumber": 4,
            "roleCurrent": "sender",
            "marblesSampled": 100,
            "probRed": 0.5,
            "lambda": 5,
            "drawnRed": 43,
            "reportedRed": 52,
            "inferredRed": 45,
            "playerTrialScore": 2,
            "oppTrialScore": -2,
            "playerTotalScore": 5,
            "oppTotalScore": -14,
            "waitTime": 2915.444042527137,
            "responseTime": 1642613364156,
            "catchQuestion": "How many <b class=\"r\">red<\/b> marbles did your opponent report drawing? ",
            "catchKey": -1,
            "catchResponse": -1,
            "catchTime": 1642613246110,
            "trialTime": 0
        },
        {
            "exptPart": "trial",
            "trialNumber": 5,
            "roleCurrent": "receiver",
            "marblesSampled": 100,
            "probRed": 0.5,
            "lambda": 5,
            "drawnRed": 30,
            "reportedRed": 36,
            "inferredRed": 30,
            "playerTrialScore": 0,
            "oppTrialScore": 0,
            "playerTotalScore": 5,
            "oppTotalScore": -14,
            "waitTime": 5530.851692643209,
            "responseTime": 1642613376669,
            "catchQuestion": "How many <b class=\"r\">red<\/b> marbles did your opponent report drawing? ",
            "catchKey": -1,
            "catchResponse": -1,
            "catchTime": 1642613376669,
            "trialTime": 0
        },
        {
            "exptPart": "trial",
            "trialNumber": 6,
            "roleCurrent": "sender",
            "marblesSampled": 100,
            "probRed": 0.5,
            "lambda": 5,
            "drawnRed": 71,
            "reportedRed": 92,
            "inferredRed": 88,
            "playerTrialScore": 17,
            "oppTrialScore": -17,
            "playerTotalScore": 22,
            "oppTotalScore": -31,
            "waitTime": 3031.185803235037,
            "responseTime": 1642613490153,
            "catchQuestion": "How many <b class=\"r\">red<\/b> marbles did your opponent report drawing? ",
            "catchKey": -1,
            "catchResponse": -1,
            "catchTime": 1642613376669,
            "trialTime": 0
        },
        {
            "exptPart": "trial",
            "trialNumber": 7,
            "roleCurrent": "receiver",
            "marblesSampled": 100,
            "probRed": 0.5,
            "lambda": 5,
            "drawnRed": 48,
            "reportedRed": 54,
            "inferredRed": 43,
            "playerTrialScore": -5,
            "oppTrialScore": 0,
            "playerTotalScore": 17,
            "oppTotalScore": -31,
            "waitTime": 5795.59895793583,
            "responseTime": 1642613513273,
            "catchQuestion": "How many <b class=\"r\">red<\/b> marbles did your opponent report drawing? ",
            "catchKey": -1,
            "catchResponse": -1,
            "catchTime": 1642613376669,
            "trialTime": 0
        },
        {
            "exptPart": "trial",
            "trialNumber": 8,
            "roleCurrent": "sender",
            "marblesSampled": 100,
            "probRed": 0.5,
            "lambda": 5,
            "drawnRed": 62,
            "reportedRed": 48,
            "inferredRed": 45,
            "playerTrialScore": 0,
            "oppTrialScore": -17,
            "playerTotalScore": 17,
            "oppTotalScore": -48,
            "waitTime": 3214.9701317480267,
            "responseTime": 1642613576353,
            "catchQuestion": "How many <b class=\"r\">red<\/b> marbles did your opponent report drawing? ",
            "catchKey": -1,
            "catchResponse": -1,
            "catchTime": 1642613376669,
            "trialTime": 0
        },
        {
            "exptPart": "trial",
            "trialNumber": 9,
            "roleCurrent": "receiver",
            "marblesSampled": 100,
            "probRed": 0.5,
            "lambda": 5,
            "drawnRed": 28,
            "reportedRed": 32,
            "inferredRed": 26,
            "playerTrialScore": -2,
            "oppTrialScore": 0,
            "playerTotalScore": 15,
            "oppTotalScore": -48,
            "waitTime": 6190.166087990074,
            "responseTime": 1642613596102,
            "catchQuestion": "How many <b class=\"r\">red<\/b> marbles did your opponent report drawing? ",
            "catchKey": -1,
            "catchResponse": -1,
            "catchTime": 1642613376669,
            "trialTime": 0
        },
        {
            "exptPart": "trial",
            "trialNumber": 10,
            "roleCurrent": "sender",
            "marblesSampled": 100,
            "probRed": 0.5,
            "lambda": 5,
            "drawnRed": 41,
            "reportedRed": 30,
            "inferredRed": 26,
            "playerTrialScore": 0,
            "oppTrialScore": -15,
            "playerTotalScore": 15,
            "oppTotalScore": -63,
            "waitTime": 2561.7542157522967,
            "responseTime": 1642613635722,
            "catchQuestion": "How many <b class=\"r\">red<\/b> marbles did your opponent report drawing? ",
            "catchKey": -1,
            "catchResponse": -1,
            "catchTime": 1642613635722,
            "trialTime": 0
        },
        {
            "exptPart": "trial",
            "trialNumber": 11,
            "roleCurrent": "receiver",
            "marblesSampled": 100,
            "probRed": 0.5,
            "lambda": 5,
            "drawnRed": 53,
            "reportedRed": 55,
            "inferredRed": 43,
            "playerTrialScore": -10,
            "oppTrialScore": 0,
            "playerTotalScore": 5,
            "oppTotalScore": -63,
            "waitTime": 7033.469346971309,
            "responseTime": 1642613928393,
            "catchQuestion": "How many <b class=\"r\">red<\/b> marbles did your opponent report drawing? ",
            "catchKey": -1,
            "catchResponse": -1,
            "catchTime": 1642613635722,
            "trialTime": 0
        },
        {
            "exptPart": "trial",
            "trialNumber": 12,
            "roleCurrent": "sender",
            "marblesSampled": 100,
            "probRed": 0.5,
            "lambda": 5,
            "drawnRed": 42,
            "reportedRed": 42,
            "inferredRed": 36,
            "playerTrialScore": 0,
            "oppTrialScore": -6,
            "playerTotalScore": 5,
            "oppTotalScore": -69,
            "waitTime": 2371.5286200311657,
            "responseTime": 1642613938522,
            "catchQuestion": "How many <b class=\"r\">red<\/b> marbles did your opponent report drawing? ",
            "catchKey": -1,
            "catchResponse": -1,
            "catchTime": 1642613635722,
            "trialTime": 0
        },
        {
            "exptPart": "trial",
            "trialNumber": 13,
            "roleCurrent": "receiver",
            "marblesSampled": 100,
            "probRed": 0.5,
            "lambda": 5,
            "drawnRed": 60,
            "reportedRed": 67,
            "inferredRed": 60,
            "playerTrialScore": 0,
            "oppTrialScore": 0,
            "playerTotalScore": 5,
            "oppTotalScore": -69,
            "waitTime": 7185.37356502555,
            "responseTime": 1642613959144,
            "catchQuestion": "How many <b class=\"r\">red<\/b> marbles did your opponent report drawing? ",
            "catchKey": -1,
            "catchResponse": -1,
            "catchTime": 1642613635722,
            "trialTime": 0
        },
        {
            "exptPart": "trial",
            "trialNumber": 14,
            "roleCurrent": "sender",
            "marblesSampled": 100,
            "probRed": 0.5,
            "lambda": 5,
            "drawnRed": 20,
            "reportedRed": 20,
            "inferredRed": 15,
            "playerTrialScore": 0,
            "oppTrialScore": -5,
            "playerTotalScore": 5,
            "oppTotalScore": -74,
            "waitTime": 2370.386933025887,
            "responseTime": 1642613979372,
            "catchQuestion": "How many <b class=\"r\">red<\/b> marbles did your opponent report drawing? ",
            "catchKey": -1,
            "catchResponse": -1,
            "catchTime": 1642613635722,
            "trialTime": 0
        },
        {
            "exptPart": "trial",
            "trialNumber": 15,
            "roleCurrent": "receiver",
            "marblesSampled": 100,
            "probRed": 0.5,
            "lambda": 5,
            "drawnRed": 83,
            "reportedRed": 89,
            "inferredRed": 70,
            "playerTrialScore": -13,
            "oppTrialScore": 0,
            "playerTotalScore": -8,
            "oppTotalScore": -74,
            "waitTime": 5303.0016154871255,
            "responseTime": 1642613992736,
            "catchQuestion": "How many <b class=\"r\">red<\/b> marbles did your opponent report drawing? ",
            "catchKey": 89,
            "catchResponse": 89,
            "catchTime": 1642613992736,
            "trialTime": 0
        },
        {
            "exptPart": "trial",
            "trialNumber": 16,
            "roleCurrent": "sender",
            "marblesSampled": 100,
            "probRed": 0.5,
            "lambda": 5,
            "drawnRed": 30,
            "reportedRed": 30,
            "inferredRed": 26,
            "playerTrialScore": 0,
            "oppTrialScore": -4,
            "playerTotalScore": -8,
            "oppTotalScore": -78,
            "waitTime": 2065.4772011008117,
            "responseTime": 1642614220866,
            "catchQuestion": "How many <b class=\"r\">red<\/b> marbles did your opponent report drawing? ",
            "catchKey": -1,
            "catchResponse": -1,
            "catchTime": 1642613992736,
            "trialTime": 0
        },
        {
            "exptPart": "trial",
            "trialNumber": 17,
            "roleCurrent": "receiver",
            "marblesSampled": 100,
            "probRed": 0.5,
            "lambda": 5,
            "drawnRed": 39,
            "reportedRed": 44,
            "inferredRed": 39,
            "playerTrialScore": 0,
            "oppTrialScore": 0,
            "playerTotalScore": -8,
            "oppTotalScore": -78,
            "waitTime": 6800.411153355604,
            "responseTime": 1642614466024,
            "catchQuestion": "How many <b class=\"r\">red<\/b> marbles did your opponent report drawing? ",
            "catchKey": -1,
            "catchResponse": -1,
            "catchTime": 1642613992736,
            "trialTime": 0
        },
        {
            "exptPart": "trial",
            "trialNumber": 18,
            "roleCurrent": "sender",
            "marblesSampled": 100,
            "probRed": 0.5,
            "lambda": 5,
            "drawnRed": 67,
            "reportedRed": 54,
            "inferredRed": 51,
            "playerTrialScore": 0,
            "oppTrialScore": -16,
            "playerTotalScore": -8,
            "oppTotalScore": -94,
            "waitTime": 2144.5504248369202,
            "responseTime": 1642614507303,
            "catchQuestion": "How many <b class=\"r\">red<\/b> marbles did your opponent report drawing? ",
            "catchKey": -1,
            "catchResponse": -1,
            "catchTime": 1642613992736,
            "trialTime": 0
        },
        {
            "exptPart": "trial",
            "trialNumber": 19,
            "roleCurrent": "receiver",
            "marblesSampled": 100,
            "probRed": 0.5,
            "lambda": 5,
            "drawnRed": 56,
            "reportedRed": 59,
            "inferredRed": 50,
            "playerTrialScore": -6,
            "oppTrialScore": 0,
            "playerTotalScore": -14,
            "oppTotalScore": -94,
            "waitTime": 6012.60923415356,
            "responseTime": 1642614519875,
            "catchQuestion": "How many <b class=\"r\">red<\/b> marbles did your opponent report drawing? ",
            "catchKey": -1,
            "catchResponse": -1,
            "catchTime": 1642613992736,
            "trialTime": 0
        },
        {
            "exptPart": "trial",
            "trialNumber": 20,
            "roleCurrent": "sender",
            "marblesSampled": 100,
            "probRed": 0.5,
            "lambda": 5,
            "drawnRed": 48,
            "reportedRed": 32,
            "inferredRed": 27,
            "playerTrialScore": 0,
            "oppTrialScore": -21,
            "playerTotalScore": -14,
            "oppTotalScore": -115,
            "waitTime": 2370.9880532936963,
            "responseTime": 1642614578326,
            "catchQuestion": "How many <b class=\"r\">red<\/b> marbles did your opponent report drawing? ",
            "catchKey": -1,
            "catchResponse": -1,
            "catchTime": 1642614578327,
            "trialTime": 0
        },
        {
            "exptPart": "trial",
            "trialNumber": 21,
            "roleCurrent": "receiver",
            "marblesSampled": 100,
            "probRed": 0.5,
            "lambda": 5,
            "drawnRed": 60,
            "reportedRed": 64,
            "inferredRed": 56,
            "playerTrialScore": -4,
            "oppTrialScore": 0,
            "playerTotalScore": -18,
            "oppTotalScore": -115,
            "waitTime": 6298.311742030297,
            "responseTime": 1642614603362,
            "catchQuestion": "How many <b class=\"r\">red<\/b> marbles did your opponent report drawing? ",
            "catchKey": -1,
            "catchResponse": -1,
            "catchTime": 1642614578327,
            "trialTime": 0
        },
        {
            "exptPart": "trial",
            "trialNumber": 22,
            "roleCurrent": "sender",
            "marblesSampled": 100,
            "probRed": 0.5,
            "lambda": 5,
            "drawnRed": 3,
            "reportedRed": 22,
            "inferredRed": 22,
            "playerTrialScore": 19,
            "oppTrialScore": -19,
            "playerTotalScore": 1,
            "oppTotalScore": -134,
            "waitTime": 2644.1241078720705,
            "responseTime": 1642614680861,
            "catchQuestion": "How many <b class=\"r\">red<\/b> marbles did your opponent report drawing? ",
            "catchKey": -1,
            "catchResponse": -1,
            "catchTime": 1642614578327,
            "trialTime": 0
        },
        {
            "exptPart": "trial",
            "trialNumber": 23,
            "roleCurrent": "receiver",
            "marblesSampled": 100,
            "probRed": 0.5,
            "lambda": 5,
            "drawnRed": 41,
            "reportedRed": 49,
            "inferredRed": 43,
            "playerTrialScore": -2,
            "oppTrialScore": 2,
            "playerTotalScore": -1,
            "oppTotalScore": -132,
            "waitTime": 7320.984973552294,
            "responseTime": 1642614694586,
            "catchQuestion": "How many <b class=\"r\">red<\/b> marbles did your opponent report drawing? ",
            "catchKey": -1,
            "catchResponse": -1,
            "catchTime": 1642614578327,
            "trialTime": 0
        },
        {
            "exptPart": "trial",
            "trialNumber": 24,
            "roleCurrent": "sender",
            "marblesSampled": 100,
            "probRed": 0.5,
            "lambda": 5,
            "drawnRed": 17,
            "reportedRed": 33,
            "inferredRed": 25,
            "playerTrialScore": 8,
            "oppTrialScore": -8,
            "playerTotalScore": 7,
            "oppTotalScore": -140,
            "waitTime": 2366.464371546678,
            "responseTime": 1642614757125,
            "catchQuestion": "How many <b class=\"r\">red<\/b> marbles did your opponent report drawing? ",
            "catchKey": -1,
            "catchResponse": -1,
            "catchTime": 1642614578327,
            "trialTime": 0
        },
        {
            "exptPart": "trial",
            "trialNumber": 25,
            "roleCurrent": "receiver",
            "marblesSampled": 100,
            "probRed": 0.5,
            "lambda": 5,
            "drawnRed": 21,
            "reportedRed": 25,
            "inferredRed": 18,
            "playerTrialScore": -3,
            "oppTrialScore": 0,
            "playerTotalScore": 4,
            "oppTotalScore": -140,
            "waitTime": 6332.876163080258,
            "responseTime": 1642614770665,
            "catchQuestion": "How many <b class=\"r\">red<\/b> marbles did your opponent report drawing? ",
            "catchKey": -1,
            "catchResponse": -1,
            "catchTime": 1642614770665,
            "trialTime": 0
        },
        {
            "exptPart": "trial",
            "trialNumber": 26,
            "roleCurrent": "sender",
            "marblesSampled": 100,
            "probRed": 0.5,
            "lambda": 5,
            "drawnRed": 58,
            "reportedRed": 75,
            "inferredRed": 71,
            "playerTrialScore": 13,
            "oppTrialScore": -13,
            "playerTotalScore": 17,
            "oppTotalScore": -153,
            "waitTime": 2266.187631036961,
            "responseTime": 1642614984970,
            "catchQuestion": "How many <b class=\"r\">red<\/b> marbles did your opponent report drawing? ",
            "catchKey": -1,
            "catchResponse": -1,
            "catchTime": 1642614770665,
            "trialTime": 0
        },
        {
            "exptPart": "trial",
            "trialNumber": 27,
            "roleCurrent": "receiver",
            "marblesSampled": 100,
            "probRed": 0.5,
            "lambda": 5,
            "drawnRed": 37,
            "reportedRed": 40,
            "inferredRed": 35,
            "playerTrialScore": -2,
            "oppTrialScore": 0,
            "playerTotalScore": 15,
            "oppTotalScore": -153,
            "waitTime": 7154.839327461082,
            "responseTime": 1642614996579,
            "catchQuestion": "How many <b class=\"r\">red<\/b> marbles did your opponent report drawing? ",
            "catchKey": -1,
            "catchResponse": -1,
            "catchTime": 1642614770665,
            "trialTime": 0
        },
        {
            "exptPart": "trial",
            "trialNumber": 28,
            "roleCurrent": "sender",
            "marblesSampled": 100,
            "probRed": 0.5,
            "lambda": 5,
            "drawnRed": 46,
            "reportedRed": 60,
            "inferredRed": 56,
            "playerTrialScore": 10,
            "oppTrialScore": -10,
            "playerTotalScore": 25,
            "oppTotalScore": -163,
            "waitTime": 2218.977852509808,
            "responseTime": 1642615034452,
            "catchQuestion": "How many <b class=\"r\">red<\/b> marbles did your opponent report drawing? ",
            "catchKey": -1,
            "catchResponse": -1,
            "catchTime": 1642614770665,
            "trialTime": 0
        },
        {
            "exptPart": "trial",
            "trialNumber": 29,
            "roleCurrent": "receiver",
            "marblesSampled": 100,
            "probRed": 0.5,
            "lambda": 5,
            "drawnRed": 57,
            "reportedRed": 61,
            "inferredRed": 55,
            "playerTrialScore": -2,
            "oppTrialScore": 0,
            "playerTotalScore": 23,
            "oppTotalScore": -163,
            "waitTime": 5509.037962073141,
            "responseTime": 1642615048398,
            "catchQuestion": "How many <b class=\"r\">red<\/b> marbles did your opponent report drawing? ",
            "catchKey": -1,
            "catchResponse": -1,
            "catchTime": 1642614770665,
            "trialTime": 0
        },
        {
            "exptPart": "trial",
            "trialNumber": 30,
            "roleCurrent": "sender",
            "marblesSampled": 100,
            "probRed": 0.5,
            "lambda": 5,
            "drawnRed": 28,
            "reportedRed": 38,
            "inferredRed": 30,
            "playerTrialScore": 2,
            "oppTrialScore": -2,
            "playerTotalScore": 25,
            "oppTotalScore": -165,
            "waitTime": 2378.9871791252276,
            "responseTime": 1642615086271,
            "catchQuestion": "How many <b class=\"r\">red<\/b> marbles did your opponent report drawing? ",
            "catchKey": -1,
            "catchResponse": -1,
            "catchTime": 1642615086271,
            "trialTime": 0
        },
        {
            "exptPart": "trial",
            "trialNumber": 31,
            "roleCurrent": "receiver",
            "marblesSampled": 100,
            "probRed": 0.5,
            "lambda": 5,
            "drawnRed": 45,
            "reportedRed": 47,
            "inferredRed": 40,
            "playerTrialScore": -5,
            "oppTrialScore": 0,
            "playerTotalScore": 20,
            "oppTotalScore": -165,
            "waitTime": 6914.588197898323,
            "responseTime": 1642615125951,
            "catchQuestion": "How many <b class=\"r\">red<\/b> marbles did your opponent report drawing? ",
            "catchKey": -1,
            "catchResponse": -1,
            "catchTime": 1642615086271,
            "trialTime": 0
        },
        {
            "exptPart": "trial",
            "trialNumber": 32,
            "roleCurrent": "sender",
            "marblesSampled": 100,
            "probRed": 0.5,
            "lambda": 5,
            "drawnRed": 62,
            "reportedRed": 62,
            "inferredRed": 53,
            "playerTrialScore": 0,
            "oppTrialScore": -9,
            "playerTotalScore": 20,
            "oppTotalScore": -174,
            "waitTime": 2124.3990588713023,
            "responseTime": 1642615148970,
            "catchQuestion": "How many <b class=\"r\">red<\/b> marbles did your opponent report drawing? ",
            "catchKey": -1,
            "catchResponse": -1,
            "catchTime": 1642615086271,
            "trialTime": 0
        },
        {
            "exptPart": "trial",
            "trialNumber": 33,
            "roleCurrent": "receiver",
            "marblesSampled": 100,
            "probRed": 0.5,
            "lambda": 5,
            "drawnRed": 66,
            "reportedRed": 72,
            "inferredRed": 66,
            "playerTrialScore": 0,
            "oppTrialScore": 0,
            "playerTotalScore": 20,
            "oppTotalScore": -174,
            "waitTime": 6684.502761526318,
            "responseTime": 1642615162600,
            "catchQuestion": "How many <b class=\"r\">red<\/b> marbles did your opponent report drawing? ",
            "catchKey": 72,
            "catchResponse": 72,
            "catchTime": 1642615162600,
            "trialTime": 0
        },
        {
            "exptPart": "trial",
            "trialNumber": 34,
            "roleCurrent": "sender",
            "marblesSampled": 100,
            "probRed": 0.5,
            "lambda": 5,
            "drawnRed": 32,
            "reportedRed": 46,
            "inferredRed": 42,
            "playerTrialScore": 10,
            "oppTrialScore": -10,
            "playerTotalScore": 30,
            "oppTotalScore": -184,
            "waitTime": 2168.3259910428956,
            "responseTime": 1642615771960,
            "catchQuestion": "How many <b class=\"r\">red<\/b> marbles did your opponent report drawing? ",
            "catchKey": -1,
            "catchResponse": -1,
            "catchTime": 1642615162600,
            "trialTime": 0
        },
        {
            "exptPart": "trial",
            "trialNumber": 35,
            "roleCurrent": "receiver",
            "marblesSampled": 100,
            "probRed": 0.5,
            "lambda": 5,
            "drawnRed": 54,
            "reportedRed": 59,
            "inferredRed": 50,
            "playerTrialScore": -4,
            "oppTrialScore": 0,
            "playerTotalScore": 26,
            "oppTotalScore": -184,
            "waitTime": 7188.251251290856,
            "responseTime": 1642615786471,
            "catchQuestion": "How many <b class=\"r\">red<\/b> marbles did your opponent report drawing? ",
            "catchKey": -1,
            "catchResponse": -1,
            "catchTime": 1642615786472,
            "trialTime": 0
        },
        {
            "exptPart": "trial",
            "trialNumber": 36,
            "roleCurrent": "sender",
            "marblesSampled": 100,
            "probRed": 0.5,
            "lambda": 5,
            "drawnRed": 32,
            "reportedRed": 41,
            "inferredRed": 37,
            "playerTrialScore": 5,
            "oppTrialScore": -5,
            "playerTotalScore": 31,
            "oppTotalScore": -189,
            "waitTime": 2082.399957210029,
            "responseTime": 1642615816433,
            "catchQuestion": "How many <b class=\"r\">red<\/b> marbles did your opponent report drawing? ",
            "catchKey": -1,
            "catchResponse": -1,
            "catchTime": 1642615786472,
            "trialTime": 0
        },
        {
            "exptPart": "trial",
            "trialNumber": 37,
            "roleCurrent": "receiver",
            "marblesSampled": 100,
            "probRed": 0.5,
            "lambda": 5,
            "drawnRed": 36,
            "reportedRed": 40,
            "inferredRed": 35,
            "playerTrialScore": -1,
            "oppTrialScore": 0,
            "playerTotalScore": 30,
            "oppTotalScore": -189,
            "waitTime": 5513.238591169929,
            "responseTime": 1642616017091,
            "catchQuestion": "How many <b class=\"r\">red<\/b> marbles did your opponent report drawing? ",
            "catchKey": -1,
            "catchResponse": -1,
            "catchTime": 1642615786472,
            "trialTime": 0
        },
        {
            "exptPart": "trial",
            "trialNumber": 38,
            "roleCurrent": "sender",
            "marblesSampled": 100,
            "probRed": 0.5,
            "lambda": 5,
            "drawnRed": 31,
            "reportedRed": 31,
            "inferredRed": 25,
            "playerTrialScore": 0,
            "oppTrialScore": -6,
            "playerTotalScore": 30,
            "oppTotalScore": -195,
            "waitTime": 3053.0565999941464,
            "responseTime": 1642616025812,
            "catchQuestion": "How many <b class=\"r\">red<\/b> marbles did your opponent report drawing? ",
            "catchKey": -1,
            "catchResponse": -1,
            "catchTime": 1642615786472,
            "trialTime": 0
        },
        {
            "exptPart": "trial",
            "trialNumber": 39,
            "roleCurrent": "receiver",
            "marblesSampled": 100,
            "probRed": 0.5,
            "lambda": 5,
            "drawnRed": 83,
            "reportedRed": 86,
            "inferredRed": 80,
            "playerTrialScore": -3,
            "oppTrialScore": 0,
            "playerTotalScore": 27,
            "oppTotalScore": -195,
            "waitTime": 6871.835264576426,
            "responseTime": 1642616043565,
            "catchQuestion": "How many <b class=\"r\">red<\/b> marbles did your opponent report drawing? ",
            "catchKey": -1,
            "catchResponse": -1,
            "catchTime": 1642615786472,
            "trialTime": 0
        },
        {
            "exptPart": "trial",
            "trialNumber": 40,
            "roleCurrent": "sender",
            "marblesSampled": 100,
            "probRed": 0.5,
            "lambda": 5,
            "drawnRed": 40,
            "reportedRed": 40,
            "inferredRed": 36,
            "playerTrialScore": 0,
            "oppTrialScore": -4,
            "playerTotalScore": 27,
            "oppTotalScore": -199,
            "waitTime": 2156.0047602115455,
            "responseTime": 1642616053681,
            "catchQuestion": "How many <b class=\"r\">red<\/b> marbles did your opponent report drawing? ",
            "catchKey": -1,
            "catchResponse": -1,
            "catchTime": 1642616053681,
            "trialTime": 0
        },
        {
            "exptPart": "trial",
            "trialNumber": 41,
            "roleCurrent": "receiver",
            "marblesSampled": 100,
            "probRed": 0.5,
            "lambda": 5,
            "drawnRed": 27,
            "reportedRed": 30,
            "inferredRed": 25,
            "playerTrialScore": -2,
            "oppTrialScore": 0,
            "playerTotalScore": 25,
            "oppTotalScore": -199,
            "waitTime": 6459.0615430355565,
            "responseTime": 1642616310684,
            "catchQuestion": "How many <b class=\"r\">red<\/b> marbles did your opponent report drawing? ",
            "catchKey": -1,
            "catchResponse": -1,
            "catchTime": 1642616053681,
            "trialTime": 0
        },
        {
            "exptPart": "trial",
            "trialNumber": 42,
            "roleCurrent": "sender",
            "marblesSampled": 100,
            "probRed": 0.5,
            "lambda": 5,
            "drawnRed": 87,
            "reportedRed": 69,
            "inferredRed": 67,
            "playerTrialScore": 0,
            "oppTrialScore": -20,
            "playerTotalScore": 25,
            "oppTotalScore": -219,
            "waitTime": 2349.975035789345,
            "responseTime": 1642616366450,
            "catchQuestion": "How many <b class=\"r\">red<\/b> marbles did your opponent report drawing? ",
            "catchKey": -1,
            "catchResponse": -1,
            "catchTime": 1642616053681,
            "trialTime": 0
        },
        {
            "exptPart": "trial",
            "trialNumber": 43,
            "roleCurrent": "receiver",
            "marblesSampled": 100,
            "probRed": 0.5,
            "lambda": 5,
            "drawnRed": 75,
            "reportedRed": 81,
            "inferredRed": 75,
            "playerTrialScore": 0,
            "oppTrialScore": 0,
            "playerTotalScore": 25,
            "oppTotalScore": -219,
            "waitTime": 7062.564287870287,
            "responseTime": 1642616380573,
            "catchQuestion": "How many <b class=\"r\">red<\/b> marbles did your opponent report drawing? ",
            "catchKey": -1,
            "catchResponse": -1,
            "catchTime": 1642616053681,
            "trialTime": 0
        },
        {
            "exptPart": "trial",
            "trialNumber": 44,
            "roleCurrent": "sender",
            "marblesSampled": 100,
            "probRed": 0.5,
            "lambda": 5,
            "drawnRed": 17,
            "reportedRed": 50,
            "inferredRed": 49,
            "playerTrialScore": 32,
            "oppTrialScore": -32,
            "playerTotalScore": 57,
            "oppTotalScore": -251,
            "waitTime": 3062.373889116072,
            "responseTime": 1642616640739,
            "catchQuestion": "How many <b class=\"r\">red<\/b> marbles did your opponent report drawing? ",
            "catchKey": -1,
            "catchResponse": -1,
            "catchTime": 1642616053681,
            "trialTime": 0
        },
        {
            "exptPart": "trial",
            "trialNumber": 45,
            "roleCurrent": "receiver",
            "marblesSampled": 100,
            "probRed": 0.5,
            "lambda": 5,
            "drawnRed": 40,
            "reportedRed": 46,
            "inferredRed": 40,
            "playerTrialScore": 0,
            "oppTrialScore": 0,
            "playerTotalScore": 57,
            "oppTotalScore": -251,
            "waitTime": 7078.584208456516,
            "responseTime": 1642616651515,
            "catchQuestion": "How many <b class=\"r\">red<\/b> marbles did your opponent report drawing? ",
            "catchKey": -1,
            "catchResponse": -1,
            "catchTime": 1642616651515,
            "trialTime": 0
        },
        {
            "exptPart": "trial",
            "trialNumber": 46,
            "roleCurrent": "sender",
            "marblesSampled": 100,
            "probRed": 0.5,
            "lambda": 5,
            "drawnRed": 29,
            "reportedRed": 44,
            "inferredRed": 43,
            "playerTrialScore": 14,
            "oppTrialScore": -14,
            "playerTotalScore": 71,
            "oppTotalScore": -265,
            "waitTime": 3176.5343668444025,
            "responseTime": 1642616887153,
            "catchQuestion": "How many <b class=\"r\">red<\/b> marbles did your opponent report drawing? ",
            "catchKey": -1,
            "catchResponse": -1,
            "catchTime": 1642616651515,
            "trialTime": 0
        },
        {
            "exptPart": "trial",
            "trialNumber": 47,
            "roleCurrent": "receiver",
            "marblesSampled": 100,
            "probRed": 0.5,
            "lambda": 5,
            "drawnRed": 60,
            "reportedRed": 65,
            "inferredRed": 60,
            "playerTrialScore": 0,
            "oppTrialScore": 0,
            "playerTotalScore": 71,
            "oppTotalScore": -265,
            "waitTime": 5193.075178544761,
            "responseTime": 1642616896882,
            "catchQuestion": "How many <b class=\"r\">red<\/b> marbles did your opponent report drawing? ",
            "catchKey": -1,
            "catchResponse": -1,
            "catchTime": 1642616651515,
            "trialTime": 0
        },
        {
            "exptPart": "trial",
            "trialNumber": 48,
            "roleCurrent": "sender",
            "marblesSampled": 100,
            "probRed": 0.5,
            "lambda": 5,
            "drawnRed": 62,
            "reportedRed": 62,
            "inferredRed": 54,
            "playerTrialScore": 0,
            "oppTrialScore": -8,
            "playerTotalScore": 71,
            "oppTotalScore": -273,
            "waitTime": 2375.355425831456,
            "responseTime": 1642616905811,
            "catchQuestion": "How many <b class=\"r\">red<\/b> marbles did your opponent report drawing? ",
            "catchKey": -1,
            "catchResponse": -1,
            "catchTime": 1642616651515,
            "trialTime": 0
        },
        {
            "exptPart": "trial",
            "trialNumber": 49,
            "roleCurrent": "receiver",
            "marblesSampled": 100,
            "probRed": 0.5,
            "lambda": 5,
            "drawnRed": 23,
            "reportedRed": 30,
            "inferredRed": 24,
            "playerTrialScore": -1,
            "oppTrialScore": 1,
            "playerTotalScore": 70,
            "oppTotalScore": -272,
            "waitTime": 6955.755308277359,
            "responseTime": 1642616916999,
            "catchQuestion": "How many <b class=\"r\">red<\/b> marbles did your opponent report drawing? ",
            "catchKey": -1,
            "catchResponse": -1,
            "catchTime": 1642616651515,
            "trialTime": 0
        },
        {
            "exptPart": "trial",
            "trialNumber": 50,
            "roleCurrent": "sender",
            "marblesSampled": 100,
            "probRed": 0.5,
            "lambda": 5,
            "drawnRed": 32,
            "reportedRed": 32,
            "inferredRed": 23,
            "playerTrialScore": 0,
            "oppTrialScore": -9,
            "playerTotalScore": 70,
            "oppTotalScore": -281,
            "waitTime": 2636.7495337178552,
            "responseTime": 1642616924315,
            "catchQuestion": "How many <b class=\"r\">red<\/b> marbles did your opponent report drawing? ",
            "catchKey": -1,
            "catchResponse": -1,
            "catchTime": 1642616924315,
            "trialTime": 0
        },
        {
            "exptPart": "trial",
            "trialNumber": 51,
            "roleCurrent": "receiver",
            "marblesSampled": 100,
            "probRed": 0.5,
            "lambda": 5,
            "drawnRed": 34,
            "reportedRed": 38,
            "inferredRed": 30,
            "playerTrialScore": -4,
            "oppTrialScore": 0,
            "playerTotalScore": 66,
            "oppTotalScore": -281,
            "waitTime": 6160.897357324116,
            "responseTime": 1642616940056,
            "catchQuestion": "How many <b class=\"r\">red<\/b> marbles did your opponent report drawing? ",
            "catchKey": -1,
            "catchResponse": -1,
            "catchTime": 1642616924315,
            "trialTime": 0
        },
        {
            "exptPart": "trial",
            "trialNumber": 52,
            "roleCurrent": "sender",
            "marblesSampled": 100,
            "probRed": 0.5,
            "lambda": 5,
            "drawnRed": 50,
            "reportedRed": 50,
            "inferredRed": 45,
            "playerTrialScore": 0,
            "oppTrialScore": -5,
            "playerTotalScore": 66,
            "oppTotalScore": -286,
            "waitTime": 2944.017077184678,
            "responseTime": 1642616949765,
            "catchQuestion": "How many <b class=\"r\">red<\/b> marbles did your opponent report drawing? ",
            "catchKey": -1,
            "catchResponse": -1,
            "catchTime": 1642616924315,
            "trialTime": 0
        },
        {
            "exptPart": "trial",
            "trialNumber": 53,
            "roleCurrent": "receiver",
            "marblesSampled": 100,
            "probRed": 0.5,
            "lambda": 5,
            "drawnRed": 70,
            "reportedRed": 72,
            "inferredRed": 66,
            "playerTrialScore": -4,
            "oppTrialScore": 0,
            "playerTotalScore": 62,
            "oppTotalScore": -286,
            "waitTime": 6059.093646662233,
            "responseTime": 1642616958979,
            "catchQuestion": "How many <b class=\"r\">red<\/b> marbles did your opponent report drawing? ",
            "catchKey": -1,
            "catchResponse": -1,
            "catchTime": 1642616924315,
            "trialTime": 0
        },
        {
            "exptPart": "trial",
            "trialNumber": 54,
            "roleCurrent": "sender",
            "marblesSampled": 100,
            "probRed": 0.5,
            "lambda": 5,
            "drawnRed": 57,
            "reportedRed": 57,
            "inferredRed": 54,
            "playerTrialScore": 0,
            "oppTrialScore": -3,
            "playerTotalScore": 62,
            "oppTotalScore": -289,
            "waitTime": 2119.2860832911256,
            "responseTime": 1642616965551,
            "catchQuestion": "How many <b class=\"r\">red<\/b> marbles did your opponent report drawing? ",
            "catchKey": -1,
            "catchResponse": -1,
            "catchTime": 1642616924315,
            "trialTime": 0
        },
        {
            "exptPart": "trial",
            "trialNumber": 55,
            "roleCurrent": "receiver",
            "marblesSampled": 100,
            "probRed": 0.5,
            "lambda": 5,
            "drawnRed": 63,
            "reportedRed": 68,
            "inferredRed": 62,
            "playerTrialScore": -1,
            "oppTrialScore": 0,
            "playerTotalScore": 61,
            "oppTotalScore": -289,
            "waitTime": 5490.847101726076,
            "responseTime": 1642616975311,
            "catchQuestion": "How many <b class=\"r\">red<\/b> marbles did your opponent report drawing? ",
            "catchKey": -1,
            "catchResponse": -1,
            "catchTime": 1642616975311,
            "trialTime": 0
        },
        {
            "exptPart": "trial",
            "trialNumber": 56,
            "roleCurrent": "sender",
            "marblesSampled": 100,
            "probRed": 0.5,
            "lambda": 5,
            "drawnRed": 14,
            "reportedRed": 30,
            "inferredRed": 22,
            "playerTrialScore": 8,
            "oppTrialScore": -8,
            "playerTotalScore": 69,
            "oppTotalScore": -297,
            "waitTime": 2585.1627926531764,
            "responseTime": 1642617194069,
            "catchQuestion": "How many <b class=\"r\">red<\/b> marbles did you actually draw (before any changes)? ",
            "catchKey": 14,
            "catchResponse": 14,
            "catchTime": 1642617194069,
            "trialTime": 0
        },
        {
            "exptPart": "trial",
            "trialNumber": 57,
            "roleCurrent": "receiver",
            "marblesSampled": 100,
            "probRed": 0.5,
            "lambda": 5,
            "drawnRed": 33,
            "reportedRed": 43,
            "inferredRed": 36,
            "playerTrialScore": -3,
            "oppTrialScore": 3,
            "playerTotalScore": 66,
            "oppTotalScore": -294,
            "waitTime": 5244.18227676305,
            "responseTime": 1642617217948,
            "catchQuestion": "How many <b class=\"r\">red<\/b> marbles did you actually draw (before any changes)? ",
            "catchKey": -1,
            "catchResponse": -1,
            "catchTime": 1642617194069,
            "trialTime": 0
        },
        {
            "exptPart": "trial",
            "trialNumber": 58,
            "roleCurrent": "sender",
            "marblesSampled": 100,
            "probRed": 0.5,
            "lambda": 5,
            "drawnRed": 67,
            "reportedRed": 67,
            "inferredRed": 58,
            "playerTrialScore": 0,
            "oppTrialScore": -9,
            "playerTotalScore": 66,
            "oppTotalScore": -303,
            "waitTime": 2819.174354118526,
            "responseTime": 1642617226350,
            "catchQuestion": "How many <b class=\"r\">red<\/b> marbles did you actually draw (before any changes)? ",
            "catchKey": 67,
            "catchResponse": 67,
            "catchTime": 1642617226350,
            "trialTime": 0
        },
        {
            "exptPart": "trial",
            "trialNumber": 59,
            "roleCurrent": "receiver",
            "marblesSampled": 100,
            "probRed": 0.5,
            "lambda": 5,
            "drawnRed": 50,
            "reportedRed": 56,
            "inferredRed": 52,
            "playerTrialScore": -2,
            "oppTrialScore": 2,
            "playerTotalScore": 64,
            "oppTotalScore": -301,
            "waitTime": 7307.264677594438,
            "responseTime": 1642617244685,
            "catchQuestion": "How many <b class=\"r\">red<\/b> marbles did you actually draw (before any changes)? ",
            "catchKey": -1,
            "catchResponse": -1,
            "catchTime": 1642617226350,
            "trialTime": 0
        },
        {
            "exptPart": "trial",
            "trialNumber": 60,
            "roleCurrent": "sender",
            "marblesSampled": 100,
            "probRed": 0.5,
            "lambda": 5,
            "drawnRed": 50,
            "reportedRed": 50,
            "inferredRed": 47,
            "playerTrialScore": 0,
            "oppTrialScore": -3,
            "playerTotalScore": 64,
            "oppTotalScore": -304,
            "waitTime": 2858.5912709114737,
            "responseTime": 1642617252918,
            "catchQuestion": "How many <b class=\"r\">red<\/b> marbles did you actually draw (before any changes)? ",
            "catchKey": -1,
            "catchResponse": -1,
            "catchTime": 1642617252918,
            "trialTime": 0
        },
        {
            "exptPart": "trial",
            "trialNumber": 61,
            "roleCurrent": "receiver",
            "marblesSampled": 100,
            "probRed": 0.5,
            "lambda": 5,
            "drawnRed": 16,
            "reportedRed": 18,
            "inferredRed": 13,
            "playerTrialScore": -3,
            "oppTrialScore": 0,
            "playerTotalScore": 61,
            "oppTotalScore": -304,
            "waitTime": 6787.342981607637,
            "responseTime": 1642617272247,
            "catchQuestion": "How many <b class=\"r\">red<\/b> marbles did you actually draw (before any changes)? ",
            "catchKey": -1,
            "catchResponse": -1,
            "catchTime": 1642617252918,
            "trialTime": 0
        },
        {
            "exptPart": "trial",
            "trialNumber": 62,
            "roleCurrent": "sender",
            "marblesSampled": 100,
            "probRed": 0.5,
            "lambda": 5,
            "drawnRed": 67,
            "reportedRed": 67,
            "inferredRed": 56,
            "playerTrialScore": 0,
            "oppTrialScore": -11,
            "playerTotalScore": 61,
            "oppTotalScore": -315,
            "waitTime": 2568.958626394092,
            "responseTime": 1642617282374,
            "catchQuestion": "How many <b class=\"r\">red<\/b> marbles did you actually draw (before any changes)? ",
            "catchKey": -1,
            "catchResponse": -1,
            "catchTime": 1642617252918,
            "trialTime": 0
        },
        {
            "exptPart": "trial",
            "trialNumber": 63,
            "roleCurrent": "receiver",
            "marblesSampled": 100,
            "probRed": 0.5,
            "lambda": 5,
            "drawnRed": 54,
            "reportedRed": 58,
            "inferredRed": 53,
            "playerTrialScore": -1,
            "oppTrialScore": 0,
            "playerTotalScore": 60,
            "oppTotalScore": -315,
            "waitTime": 5951.629865087597,
            "responseTime": 1642617457221,
            "catchQuestion": "How many <b class=\"r\">red<\/b> marbles did you actually draw (before any changes)? ",
            "catchKey": -1,
            "catchResponse": -1,
            "catchTime": 1642617252918,
            "trialTime": 0
        },
        {
            "exptPart": "trial",
            "trialNumber": 64,
            "roleCurrent": "sender",
            "marblesSampled": 100,
            "probRed": 0.5,
            "lambda": 5,
            "drawnRed": 57,
            "reportedRed": 57,
            "inferredRed": 52,
            "playerTrialScore": 0,
            "oppTrialScore": -5,
            "playerTotalScore": 60,
            "oppTotalScore": -320,
            "waitTime": 2488.4759450815227,
            "responseTime": 1642617464574,
            "catchQuestion": "How many <b class=\"r\">red<\/b> marbles did you actually draw (before any changes)? ",
            "catchKey": 57,
            "catchResponse": 57,
            "catchTime": 1642617464574,
            "trialTime": 0
        },
        {
            "exptPart": "trial",
            "trialNumber": 65,
            "roleCurrent": "receiver",
            "marblesSampled": 100,
            "probRed": 0.5,
            "lambda": 5,
            "drawnRed": 50,
            "reportedRed": 54,
            "inferredRed": 48,
            "playerTrialScore": -2,
            "oppTrialScore": 0,
            "playerTotalScore": 58,
            "oppTotalScore": -320,
            "waitTime": 6775.054981553407,
            "responseTime": 1642617480197,
            "catchQuestion": "How many <b class=\"r\">red<\/b> marbles did your opponent report drawing? ",
            "catchKey": 54,
            "catchResponse": 54,
            "catchTime": 1642617480197,
            "trialTime": 0
        },
        {
            "exptPart": "trial",
            "trialNumber": 66,
            "roleCurrent": "sender",
            "marblesSampled": 100,
            "probRed": 0.5,
            "lambda": 5,
            "drawnRed": 74,
            "reportedRed": 67,
            "inferredRed": 64,
            "playerTrialScore": 0,
            "oppTrialScore": -10,
            "playerTotalScore": 58,
            "oppTotalScore": -330,
            "waitTime": 2731.7448213558373,
            "responseTime": 1642617514198,
            "catchQuestion": "How many <b class=\"r\">red<\/b> marbles did your opponent report drawing? ",
            "catchKey": -1,
            "catchResponse": -1,
            "catchTime": 1642617480197,
            "trialTime": 0
        },
        {
            "exptPart": "trial",
            "trialNumber": 67,
            "roleCurrent": "receiver",
            "marblesSampled": 100,
            "probRed": 0.5,
            "lambda": 5,
            "drawnRed": 22,
            "reportedRed": 26,
            "inferredRed": 26,
            "playerTrialScore": -4,
            "oppTrialScore": 4,
            "playerTotalScore": 54,
            "oppTotalScore": -326,
            "waitTime": 7002.723401421163,
            "responseTime": 1642617526050,
            "catchQuestion": "How many <b class=\"r\">red<\/b> marbles did your opponent report drawing? ",
            "catchKey": -1,
            "catchResponse": -1,
            "catchTime": 1642617480197,
            "trialTime": 0
        },
        {
            "exptPart": "trial",
            "trialNumber": 68,
            "roleCurrent": "sender",
            "marblesSampled": 100,
            "probRed": 0.5,
            "lambda": 5,
            "drawnRed": 22,
            "reportedRed": 0,
            "inferredRed": 0,
            "playerTrialScore": 0,
            "oppTrialScore": -22,
            "playerTotalScore": 54,
            "oppTotalScore": -348,
            "waitTime": 2614.8894169828245,
            "responseTime": 1642617615324,
            "catchQuestion": "How many <b class=\"r\">red<\/b> marbles did your opponent report drawing? ",
            "catchKey": -1,
            "catchResponse": -1,
            "catchTime": 1642617480197,
            "trialTime": 0
        },
        {
            "exptPart": "trial",
            "trialNumber": 69,
            "roleCurrent": "receiver",
            "marblesSampled": 100,
            "probRed": 0.5,
            "lambda": 5,
            "drawnRed": 45,
            "reportedRed": 50,
            "inferredRed": 69,
            "playerTrialScore": -24,
            "oppTrialScore": 24,
            "playerTotalScore": 30,
            "oppTotalScore": -324,
            "waitTime": 5963.7790316348855,
            "responseTime": 1642617625159,
            "catchQuestion": "How many <b class=\"r\">red<\/b> marbles did your opponent report drawing? ",
            "catchKey": -1,
            "catchResponse": -1,
            "catchTime": 1642617480197,
            "trialTime": 0
        },
        {
            "exptPart": "trial",
            "trialNumber": 70,
            "roleCurrent": "sender",
            "marblesSampled": 100,
            "probRed": 0.5,
            "lambda": 5,
            "drawnRed": 65,
            "reportedRed": 65,
            "inferredRed": 61,
            "playerTrialScore": 0,
            "oppTrialScore": -4,
            "playerTotalScore": 30,
            "oppTotalScore": -328,
            "waitTime": 2287.056982739705,
            "responseTime": 1642617634644,
            "catchQuestion": "How many <b class=\"r\">red<\/b> marbles did your opponent report drawing? ",
            "catchKey": -1,
            "catchResponse": -1,
            "catchTime": 1642617634644,
            "trialTime": 0
        },
        {
            "exptPart": "trial",
            "trialNumber": 71,
            "roleCurrent": "receiver",
            "marblesSampled": 100,
            "probRed": 0.5,
            "lambda": 5,
            "drawnRed": 42,
            "reportedRed": 45,
            "inferredRed": 40,
            "playerTrialScore": -2,
            "oppTrialScore": 0,
            "playerTotalScore": 28,
            "oppTotalScore": -328,
            "waitTime": 5263.117271355936,
            "responseTime": 1642617652120,
            "catchQuestion": "How many <b class=\"r\">red<\/b> marbles did your opponent report drawing? ",
            "catchKey": 45,
            "catchResponse": 45,
            "catchTime": 1642617652120,
            "trialTime": 0
        },
        {
            "exptPart": "trial",
            "trialNumber": 72,
            "roleCurrent": "sender",
            "marblesSampled": 100,
            "probRed": 0.5,
            "lambda": 5,
            "drawnRed": 13,
            "reportedRed": 24,
            "inferredRed": 19,
            "playerTrialScore": 6,
            "oppTrialScore": -6,
            "playerTotalScore": 34,
            "oppTotalScore": -334,
            "waitTime": 2066.339362273333,
            "responseTime": 1642617925887,
            "catchQuestion": "How many <b class=\"r\">red<\/b> marbles did your opponent report drawing? ",
            "catchKey": -1,
            "catchResponse": -1,
            "catchTime": 1642617652120,
            "trialTime": 0
        },
        {
            "exptPart": "trial",
            "trialNumber": 73,
            "roleCurrent": "receiver",
            "marblesSampled": 100,
            "probRed": 0.5,
            "lambda": 5,
            "drawnRed": 51,
            "reportedRed": 52,
            "inferredRed": 46,
            "playerTrialScore": -5,
            "oppTrialScore": 0,
            "playerTotalScore": 29,
            "oppTotalScore": -334,
            "waitTime": 6899.9238141913365,
            "responseTime": 1642617935913,
            "catchQuestion": "How many <b class=\"r\">red<\/b> marbles did your opponent report drawing? ",
            "catchKey": -1,
            "catchResponse": -1,
            "catchTime": 1642617652120,
            "trialTime": 0
        },
        {
            "exptPart": "trial",
            "trialNumber": 74,
            "roleCurrent": "sender",
            "marblesSampled": 100,
            "probRed": 0.5,
            "lambda": 5,
            "drawnRed": 40,
            "reportedRed": 40,
            "inferredRed": 31,
            "playerTrialScore": 0,
            "oppTrialScore": -9,
            "playerTotalScore": 29,
            "oppTotalScore": -343,
            "waitTime": 2103.7307971718537,
            "responseTime": 1642617941849,
            "catchQuestion": "How many <b class=\"r\">red<\/b> marbles did your opponent report drawing? ",
            "catchKey": -1,
            "catchResponse": -1,
            "catchTime": 1642617652120,
            "trialTime": 0
        },
        {
            "exptPart": "trial",
            "trialNumber": 75,
            "roleCurrent": "receiver",
            "marblesSampled": 100,
            "probRed": 0.5,
            "lambda": 5,
            "drawnRed": 47,
            "reportedRed": 57,
            "inferredRed": 51,
            "playerTrialScore": -4,
            "oppTrialScore": 4,
            "playerTotalScore": 25,
            "oppTotalScore": -339,
            "waitTime": 5502.003015502505,
            "responseTime": 1642617951646,
            "catchQuestion": "How many <b class=\"r\">red<\/b> marbles did your opponent report drawing? ",
            "catchKey": -1,
            "catchResponse": -1,
            "catchTime": 1642617951646,
            "trialTime": 0
        },
        {
            "exptPart": "trial",
            "trialNumber": 76,
            "roleCurrent": "sender",
            "marblesSampled": 100,
            "probRed": 0.5,
            "lambda": 5,
            "drawnRed": 53,
            "reportedRed": 53,
            "inferredRed": 48,
            "playerTrialScore": 0,
            "oppTrialScore": -5,
            "playerTotalScore": 25,
            "oppTotalScore": -344,
            "waitTime": 2063.5956005755033,
            "responseTime": 1642618764301,
            "catchQuestion": "How many <b class=\"r\">red<\/b> marbles did your opponent report drawing? ",
            "catchKey": -1,
            "catchResponse": -1,
            "catchTime": 1642617951646,
            "trialTime": 0
        },
        {
            "exptPart": "trial",
            "trialNumber": 77,
            "roleCurrent": "receiver",
            "marblesSampled": 100,
            "probRed": 0.5,
            "lambda": 5,
            "drawnRed": 22,
            "reportedRed": 29,
            "inferredRed": 24,
            "playerTrialScore": -2,
            "oppTrialScore": 2,
            "playerTotalScore": 23,
            "oppTotalScore": -342,
            "waitTime": 7444.287080147512,
            "responseTime": 1642618775863,
            "catchQuestion": "How many <b class=\"r\">red<\/b> marbles did your opponent report drawing? ",
            "catchKey": -1,
            "catchResponse": -1,
            "catchTime": 1642617951646,
            "trialTime": 0
        },
        {
            "exptPart": "trial",
            "trialNumber": 78,
            "roleCurrent": "sender",
            "marblesSampled": 100,
            "probRed": 0.5,
            "lambda": 5,
            "drawnRed": 33,
            "reportedRed": 33,
            "inferredRed": 29,
            "playerTrialScore": 0,
            "oppTrialScore": -4,
            "playerTotalScore": 23,
            "oppTotalScore": -346,
            "waitTime": 2353.701991460226,
            "responseTime": 1642618784211,
            "catchQuestion": "How many <b class=\"r\">red<\/b> marbles did your opponent report drawing? ",
            "catchKey": -1,
            "catchResponse": -1,
            "catchTime": 1642617951646,
            "trialTime": 0
        },
        {
            "exptPart": "trial",
            "trialNumber": 79,
            "roleCurrent": "receiver",
            "marblesSampled": 100,
            "probRed": 0.5,
            "lambda": 5,
            "drawnRed": 36,
            "reportedRed": 45,
            "inferredRed": 40,
            "playerTrialScore": -4,
            "oppTrialScore": 4,
            "playerTotalScore": 19,
            "oppTotalScore": -342,
            "waitTime": 5821.9599059677475,
            "responseTime": 1642623883444,
            "catchQuestion": "How many <b class=\"r\">red<\/b> marbles did your opponent report drawing? ",
            "catchKey": -1,
            "catchResponse": -1,
            "catchTime": 1642617951646,
            "trialTime": 0
        },
        {
            "exptPart": "trial",
            "trialNumber": 80,
            "roleCurrent": "sender",
            "marblesSampled": 100,
            "probRed": 0.5,
            "lambda": 5,
            "drawnRed": 54,
            "reportedRed": 55,
            "inferredRed": 47,
            "playerTrialScore": 0,
            "oppTrialScore": -7,
            "playerTotalScore": 19,
            "oppTotalScore": -349,
            "waitTime": 2633.3341652029844,
            "responseTime": 1642623893038,
            "catchQuestion": "How many <b class=\"r\">red<\/b> marbles did your opponent report drawing? ",
            "catchKey": -1,
            "catchResponse": -1,
            "catchTime": 1642623893039,
            "trialTime": 0
        },
        {
            "exptPart": "trial",
            "trialNumber": 81,
            "roleCurrent": "receiver",
            "marblesSampled": 100,
            "probRed": 0.5,
            "lambda": 5,
            "drawnRed": 61,
            "reportedRed": 67,
            "inferredRed": 60,
            "playerTrialScore": -1,
            "oppTrialScore": 0,
            "playerTotalScore": 18,
            "oppTotalScore": -349,
            "waitTime": 5169.311898480797,
            "responseTime": 1642623911939,
            "catchQuestion": "How many <b class=\"r\">red<\/b> marbles did your opponent report drawing? ",
            "catchKey": -1,
            "catchResponse": -1,
            "catchTime": 1642623893039,
            "trialTime": 0
        },
        {
            "exptPart": "trial",
            "trialNumber": 82,
            "roleCurrent": "sender",
            "marblesSampled": 100,
            "probRed": 0.5,
            "lambda": 5,
            "drawnRed": 32,
            "reportedRed": 32,
            "inferredRed": 26,
            "playerTrialScore": 0,
            "oppTrialScore": -6,
            "playerTotalScore": 18,
            "oppTotalScore": -355,
            "waitTime": 2686.0770615806387,
            "responseTime": 1642623922563,
            "catchQuestion": "How many <b class=\"r\">red<\/b> marbles did your opponent report drawing? ",
            "catchKey": -1,
            "catchResponse": -1,
            "catchTime": 1642623893039,
            "trialTime": 0
        },
        {
            "exptPart": "trial",
            "trialNumber": 83,
            "roleCurrent": "receiver",
            "marblesSampled": 100,
            "probRed": 0.5,
            "lambda": 5,
            "drawnRed": 73,
            "reportedRed": 78,
            "inferredRed": 74,
            "playerTrialScore": -1,
            "oppTrialScore": 1,
            "playerTotalScore": 17,
            "oppTotalScore": -354,
            "waitTime": 5532.078880343293,
            "responseTime": 1642623931656,
            "catchQuestion": "How many <b class=\"r\">red<\/b> marbles did your opponent report drawing? ",
            "catchKey": -1,
            "catchResponse": -1,
            "catchTime": 1642623893039,
            "trialTime": 0
        },
        {
            "exptPart": "trial",
            "trialNumber": 84,
            "roleCurrent": "sender",
            "marblesSampled": 100,
            "probRed": 0.5,
            "lambda": 5,
            "drawnRed": 23,
            "reportedRed": 23,
            "inferredRed": 22,
            "playerTrialScore": 0,
            "oppTrialScore": -1,
            "playerTotalScore": 17,
            "oppTotalScore": -355,
            "waitTime": 3234.275578217515,
            "responseTime": 1642623942022,
            "catchQuestion": "How many <b class=\"r\">red<\/b> marbles did you actually draw (before any changes)? ",
            "catchKey": 23,
            "catchResponse": 23,
            "catchTime": 1642623942022,
            "trialTime": 0
        },
        {
            "exptPart": "trial",
            "trialNumber": 85,
            "roleCurrent": "receiver",
            "marblesSampled": 100,
            "probRed": 0.5,
            "lambda": 5,
            "drawnRed": 64,
            "reportedRed": 69,
            "inferredRed": 63,
            "playerTrialScore": -1,
            "oppTrialScore": 0,
            "playerTotalScore": 16,
            "oppTotalScore": -355,
            "waitTime": 7460.104087281945,
            "responseTime": 1642623958531,
            "catchQuestion": "How many <b class=\"r\">red<\/b> marbles did your opponent report drawing? ",
            "catchKey": 69,
            "catchResponse": 69,
            "catchTime": 1642623958531,
            "trialTime": 0
        },
        {
            "exptPart": "trial",
            "trialNumber": 86,
            "roleCurrent": "sender",
            "marblesSampled": 100,
            "probRed": 0.5,
            "lambda": 5,
            "drawnRed": 51,
            "reportedRed": 51,
            "inferredRed": 45,
            "playerTrialScore": 0,
            "oppTrialScore": -6,
            "playerTotalScore": 16,
            "oppTotalScore": -361,
            "waitTime": 2613.056748280062,
            "responseTime": 1642623972663,
            "catchQuestion": "How many <b class=\"r\">red<\/b> marbles did your opponent report drawing? ",
            "catchKey": -1,
            "catchResponse": -1,
            "catchTime": 1642623958531,
            "trialTime": 0
        },
        {
            "exptPart": "trial",
            "trialNumber": 87,
            "roleCurrent": "receiver",
            "marblesSampled": 100,
            "probRed": 0.5,
            "lambda": 5,
            "drawnRed": 64,
            "reportedRed": 69,
            "inferredRed": 63,
            "playerTrialScore": -1,
            "oppTrialScore": 0,
            "playerTotalScore": 15,
            "oppTotalScore": -361,
            "waitTime": 5379.913630703097,
            "responseTime": 1642623981276,
            "catchQuestion": "How many <b class=\"r\">red<\/b> marbles did your opponent report drawing? ",
            "catchKey": -1,
            "catchResponse": -1,
            "catchTime": 1642623958531,
            "trialTime": 0
        },
        {
            "exptPart": "trial",
            "trialNumber": 88,
            "roleCurrent": "sender",
            "marblesSampled": 100,
            "probRed": 0.5,
            "lambda": 5,
            "drawnRed": 55,
            "reportedRed": 55,
            "inferredRed": 51,
            "playerTrialScore": 0,
            "oppTrialScore": -4,
            "playerTotalScore": 15,
            "oppTotalScore": -365,
            "waitTime": 2278.9008714851034,
            "responseTime": 1642623988291,
            "catchQuestion": "How many <b class=\"r\">red<\/b> marbles did your opponent report drawing? ",
            "catchKey": -1,
            "catchResponse": -1,
            "catchTime": 1642623958531,
            "trialTime": 0
        },
        {
            "exptPart": "trial",
            "trialNumber": 89,
            "roleCurrent": "receiver",
            "marblesSampled": 100,
            "probRed": 0.5,
            "lambda": 5,
            "drawnRed": 30,
            "reportedRed": 36,
            "inferredRed": 32,
            "playerTrialScore": -2,
            "oppTrialScore": 2,
            "playerTotalScore": 13,
            "oppTotalScore": -363,
            "waitTime": 7223.695356321947,
            "responseTime": 1642623998554,
            "catchQuestion": "How many <b class=\"r\">red<\/b> marbles did your opponent report drawing? ",
            "catchKey": -1,
            "catchResponse": -1,
            "catchTime": 1642623958531,
            "trialTime": 0
        },
        {
            "exptPart": "trial",
            "trialNumber": 90,
            "roleCurrent": "sender",
            "marblesSampled": 100,
            "probRed": 0.5,
            "lambda": 5,
            "drawnRed": 41,
            "reportedRed": 41,
            "inferredRed": 34,
            "playerTrialScore": 0,
            "oppTrialScore": -7,
            "playerTotalScore": 13,
            "oppTotalScore": -370,
            "waitTime": 2770.37937495965,
            "responseTime": 1642624005784,
            "catchQuestion": "How many <b class=\"r\">red<\/b> marbles did your opponent report drawing? ",
            "catchKey": -1,
            "catchResponse": -1,
            "catchTime": 1642624005784,
            "trialTime": 0
        },
        {
            "exptPart": "trial",
            "trialNumber": 91,
            "roleCurrent": "receiver",
            "marblesSampled": 100,
            "probRed": 0.5,
            "lambda": 5,
            "drawnRed": 80,
            "reportedRed": 84,
            "inferredRed": 78,
            "playerTrialScore": -2,
            "oppTrialScore": 0,
            "playerTotalScore": 11,
            "oppTotalScore": -370,
            "waitTime": 7285.914012422375,
            "responseTime": 1642624018621,
            "catchQuestion": "How many <b class=\"r\">red<\/b> marbles did your opponent report drawing? ",
            "catchKey": -1,
            "catchResponse": -1,
            "catchTime": 1642624005784,
            "trialTime": 0
        },
        {
            "exptPart": "trial",
            "trialNumber": 92,
            "roleCurrent": "sender",
            "marblesSampled": 100,
            "probRed": 0.5,
            "lambda": 5,
            "drawnRed": 43,
            "reportedRed": 43,
            "inferredRed": 41,
            "playerTrialScore": 0,
            "oppTrialScore": -2,
            "playerTotalScore": 11,
            "oppTotalScore": -372,
            "waitTime": 2115.722897168568,
            "responseTime": 1642624025412,
            "catchQuestion": "How many <b class=\"r\">red<\/b> marbles did your opponent report drawing? ",
            "catchKey": -1,
            "catchResponse": -1,
            "catchTime": 1642624005784,
            "trialTime": 0
        },
        {
            "exptPart": "trial",
            "trialNumber": 93,
            "roleCurrent": "receiver",
            "marblesSampled": 100,
            "probRed": 0.5,
            "lambda": 5,
            "drawnRed": 29,
            "reportedRed": 31,
            "inferredRed": 26,
            "playerTrialScore": -3,
            "oppTrialScore": 0,
            "playerTotalScore": 8,
            "oppTotalScore": -372,
            "waitTime": 5646.615163875802,
            "responseTime": 1642624035569,
            "catchQuestion": "How many <b class=\"r\">red<\/b> marbles did your opponent report drawing? ",
            "catchKey": -1,
            "catchResponse": -1,
            "catchTime": 1642624005784,
            "trialTime": 0
        },
        {
            "exptPart": "trial",
            "trialNumber": 94,
            "roleCurrent": "sender",
            "marblesSampled": 100,
            "probRed": 0.5,
            "lambda": 5,
            "drawnRed": 39,
            "reportedRed": 39,
            "inferredRed": 33,
            "playerTrialScore": 0,
            "oppTrialScore": -6,
            "playerTotalScore": 8,
            "oppTotalScore": -378,
            "waitTime": 2950.1040247517158,
            "responseTime": 1642624045033,
            "catchQuestion": "How many <b class=\"r\">red<\/b> marbles did your opponent report drawing? ",
            "catchKey": -1,
            "catchResponse": -1,
            "catchTime": 1642624005784,
            "trialTime": 0
        },
        {
            "exptPart": "trial",
            "trialNumber": 95,
            "roleCurrent": "receiver",
            "marblesSampled": 100,
            "probRed": 0.5,
            "lambda": 5,
            "drawnRed": 63,
            "reportedRed": 68,
            "inferredRed": 62,
            "playerTrialScore": -1,
            "oppTrialScore": 0,
            "playerTotalScore": 7,
            "oppTotalScore": -378,
            "waitTime": 5836.994762631449,
            "responseTime": 1642624056656,
            "catchQuestion": "How many <b class=\"r\">red<\/b> marbles did your opponent report drawing? ",
            "catchKey": -1,
            "catchResponse": -1,
            "catchTime": 1642624056656,
            "trialTime": 0
        },
        {
            "exptPart": "trial",
            "trialNumber": 96,
            "roleCurrent": "sender",
            "marblesSampled": 100,
            "probRed": 0.5,
            "lambda": 5,
            "drawnRed": 49,
            "reportedRed": 49,
            "inferredRed": 41,
            "playerTrialScore": 0,
            "oppTrialScore": -8,
            "playerTotalScore": 7,
            "oppTotalScore": -386,
            "waitTime": 2186.630159114591,
            "responseTime": 1642624066863,
            "catchQuestion": "How many <b class=\"r\">red<\/b> marbles did your opponent report drawing? ",
            "catchKey": -1,
            "catchResponse": -1,
            "catchTime": 1642624056656,
            "trialTime": 0
        },
        {
            "exptPart": "trial",
            "trialNumber": 97,
            "roleCurrent": "receiver",
            "marblesSampled": 100,
            "probRed": 0.5,
            "lambda": 5,
            "drawnRed": 69,
            "reportedRed": 74,
            "inferredRed": 70,
            "playerTrialScore": -1,
            "oppTrialScore": 1,
            "playerTotalScore": 6,
            "oppTotalScore": -385,
            "waitTime": 6915.860372136745,
            "responseTime": 1642624076852,
            "catchQuestion": "How many <b class=\"r\">red<\/b> marbles did your opponent report drawing? ",
            "catchKey": -1,
            "catchResponse": -1,
            "catchTime": 1642624056656,
            "trialTime": 0
        },
        {
            "exptPart": "trial",
            "trialNumber": 98,
            "roleCurrent": "sender",
            "marblesSampled": 100,
            "probRed": 0.5,
            "lambda": 5,
            "drawnRed": 51,
            "reportedRed": 51,
            "inferredRed": 46,
            "playerTrialScore": 0,
            "oppTrialScore": -5,
            "playerTotalScore": 6,
            "oppTotalScore": -390,
            "waitTime": 2929.717155984238,
            "responseTime": 1642624084436,
            "catchQuestion": "How many <b class=\"r\">red<\/b> marbles did your opponent report drawing? ",
            "catchKey": -1,
            "catchResponse": -1,
            "catchTime": 1642624056656,
            "trialTime": 0
        },
        {
            "exptPart": "trial",
            "trialNumber": 99,
            "roleCurrent": "receiver",
            "marblesSampled": 100,
            "probRed": 0.5,
            "lambda": 5,
            "drawnRed": 88,
            "reportedRed": 94,
            "inferredRed": 89,
            "playerTrialScore": -1,
            "oppTrialScore": 1,
            "playerTotalScore": 5,
            "oppTotalScore": -389,
            "waitTime": 7152.572841103276,
            "responseTime": 1642624102090,
            "catchQuestion": "How many <b class=\"r\">red<\/b> marbles did your opponent report drawing? ",
            "catchKey": -1,
            "catchResponse": -1,
            "catchTime": 1642624056656,
            "trialTime": 0
        },
        {
            "exptPart": "trial",
            "trialNumber": 100,
            "roleCurrent": "sender",
            "marblesSampled": 100,
            "probRed": 0.5,
            "lambda": 5,
            "drawnRed": 35,
            "reportedRed": 35,
            "inferredRed": 33,
            "playerTrialScore": 0,
            "oppTrialScore": -2,
            "playerTotalScore": 5,
            "oppTotalScore": -391,
            "waitTime": 3083.9777251066325,
            "responseTime": 1642624111038,
            "catchQuestion": "How many <b class=\"r\">red<\/b> marbles did your opponent report drawing? ",
            "catchKey": -1,
            "catchResponse": -1,
            "catchTime": 1642624111038,
            "trialTime": 0
        }
    ]
}