{
    "client": {
        "type": "sona",
        "experiment_id": 2228,
        "credit_token": "b315147ae43241ea9c65086cb510cfb7",
        "survey_code": "36047",
        "sid": "sona-36047",
        "window": {
            "width": 1440,
            "height": 739
        },
        "screen": {
            "width": 1440,
            "height": 900
        },
        "userAgent": "Mozilla\/5.0 (Macintosh; Intel Mac OS X 10_15_7) AppleWebKit\/537.36 (KHTML, like Gecko) Chrome\/97.0.4692.71 Safari\/537.36",
        "score": 0,
        "bonus": 0
    },
    "expt": {
        "saveURL": "submit.simple.php",
        "trials": 100,
        "practiceTrials": 2,
        "marblesSampled": 100,
        "probRed": 0.5,
        "lambdaAI": 5,
        "roleFirst": "sender",
        "roles": [
            "sender",
            "receiver"
        ],
        "cost": "unif",
        "goal": "under",
        "catchTrials": [
            16,
            35,
            70,
            44,
            14,
            84,
            93,
            96,
            20,
            58
        ],
        "scoreTotal": {
            "player": -1003,
            "opp": 96
        },
        "sona": {
            "experiment_id": 2228,
            "credit_token": "b315147ae43241ea9c65086cb510cfb7"
        },
        "pilot": false,
        "debug": false
    },
    "trials": [
        {
            "exptPart": "practice",
            "trialNumber": 1,
            "roleCurrent": "sender",
            "marblesSampled": 100,
            "probRed": 0.5,
            "lambda": 5,
            "drawnRed": 77,
            "reportedRed": 67,
            "inferredRed": 69,
            "playerTrialScore": 8,
            "oppTrialScore": -8,
            "playerTotalScore": 8,
            "oppTotalScore": -8,
            "waitTime": 2892.9982948661645,
            "responseTime": 1642789283605,
            "catchQuestion": "How many <b class=\"r\">red<\/b> marbles did you actually draw (before any changes)? ",
            "catchKey": 77,
            "catchResponse": 67,
            "catchTime": 1642789283606,
            "trialTime": 0
        },
        {
            "exptPart": "practice",
            "trialNumber": 2,
            "roleCurrent": "receiver",
            "marblesSampled": 100,
            "probRed": 0.5,
            "lambda": 5,
            "drawnRed": 49,
            "reportedRed": 42,
            "inferredRed": 45,
            "playerTrialScore": -4,
            "oppTrialScore": 4,
            "playerTotalScore": 4,
            "oppTotalScore": -4,
            "waitTime": 5548.4487871053825,
            "responseTime": 1642789323254,
            "catchQuestion": "How many <b class=\"r\">red<\/b> marbles did your opponent report drawing? ",
            "catchKey": 42,
            "catchResponse": 30,
            "catchTime": 1642789323255,
            "trialTime": 0
        },
        {
            "exptPart": "trial",
            "trialNumber": 1,
            "roleCurrent": "sender",
            "marblesSampled": 100,
            "probRed": 0.5,
            "lambda": 5,
            "drawnRed": 64,
            "reportedRed": 54,
            "inferredRed": 57,
            "playerTrialScore": 7,
            "oppTrialScore": -7,
            "playerTotalScore": 7,
            "oppTotalScore": -7,
            "waitTime": 2177.045787041054,
            "responseTime": 1642789360439,
            "catchQuestion": "How many <b class=\"r\">red<\/b> marbles did your opponent report drawing? ",
            "catchKey": -1,
            "catchResponse": -1,
            "catchTime": 1642789323255,
            "trialTime": 0
        },
        {
            "exptPart": "trial",
            "trialNumber": 2,
            "roleCurrent": "receiver",
            "marblesSampled": 100,
            "probRed": 0.5,
            "lambda": 5,
            "drawnRed": 40,
            "reportedRed": 35,
            "inferredRed": 38,
            "playerTrialScore": -2,
            "oppTrialScore": 2,
            "playerTotalScore": 5,
            "oppTotalScore": -5,
            "waitTime": 7156.2915162781765,
            "responseTime": 1642789375471,
            "catchQuestion": "How many <b class=\"r\">red<\/b> marbles did your opponent report drawing? ",
            "catchKey": -1,
            "catchResponse": -1,
            "catchTime": 1642789323255,
            "trialTime": 0
        },
        {
            "exptPart": "trial",
            "trialNumber": 3,
            "roleCurrent": "sender",
            "marblesSampled": 100,
            "probRed": 0.5,
            "lambda": 5,
            "drawnRed": 58,
            "reportedRed": 46,
            "inferredRed": 52,
            "playerTrialScore": 6,
            "oppTrialScore": -6,
            "playerTotalScore": 11,
            "oppTotalScore": -11,
            "waitTime": 2429.641396707042,
            "responseTime": 1642789394905,
            "catchQuestion": "How many <b class=\"r\">red<\/b> marbles did your opponent report drawing? ",
            "catchKey": -1,
            "catchResponse": -1,
            "catchTime": 1642789323255,
            "trialTime": 0
        },
        {
            "exptPart": "trial",
            "trialNumber": 4,
            "roleCurrent": "receiver",
            "marblesSampled": 100,
            "probRed": 0.5,
            "lambda": 5,
            "drawnRed": 77,
            "reportedRed": 70,
            "inferredRed": 76,
            "playerTrialScore": -1,
            "oppTrialScore": 1,
            "playerTotalScore": 10,
            "oppTotalScore": -10,
            "waitTime": 6271.174048672883,
            "responseTime": 1642789406705,
            "catchQuestion": "How many <b class=\"r\">red<\/b> marbles did your opponent report drawing? ",
            "catchKey": -1,
            "catchResponse": -1,
            "catchTime": 1642789323255,
            "trialTime": 0
        },
        {
            "exptPart": "trial",
            "trialNumber": 5,
            "roleCurrent": "sender",
            "marblesSampled": 100,
            "probRed": 0.5,
            "lambda": 5,
            "drawnRed": 54,
            "reportedRed": 66,
            "inferredRed": 73,
            "playerTrialScore": 0,
            "oppTrialScore": -19,
            "playerTotalScore": 10,
            "oppTotalScore": -29,
            "waitTime": 3147.075436001257,
            "responseTime": 1642789442089,
            "catchQuestion": "How many <b class=\"r\">red<\/b> marbles did your opponent report drawing? ",
            "catchKey": -1,
            "catchResponse": -1,
            "catchTime": 1642789442089,
            "trialTime": 0
        },
        {
            "exptPart": "trial",
            "trialNumber": 6,
            "roleCurrent": "receiver",
            "marblesSampled": 100,
            "probRed": 0.5,
            "lambda": 5,
            "drawnRed": 69,
            "reportedRed": 65,
            "inferredRed": 67,
            "playerTrialScore": -2,
            "oppTrialScore": 2,
            "playerTotalScore": 8,
            "oppTotalScore": -27,
            "waitTime": 5208.313148390949,
            "responseTime": 1642789456569,
            "catchQuestion": "How many <b class=\"r\">red<\/b> marbles did your opponent report drawing? ",
            "catchKey": -1,
            "catchResponse": -1,
            "catchTime": 1642789442089,
            "trialTime": 0
        },
        {
            "exptPart": "trial",
            "trialNumber": 7,
            "roleCurrent": "sender",
            "marblesSampled": 100,
            "probRed": 0.5,
            "lambda": 5,
            "drawnRed": 59,
            "reportedRed": 79,
            "inferredRed": 89,
            "playerTrialScore": 0,
            "oppTrialScore": -30,
            "playerTotalScore": 8,
            "oppTotalScore": -57,
            "waitTime": 2839.6606682342644,
            "responseTime": 1642789483087,
            "catchQuestion": "How many <b class=\"r\">red<\/b> marbles did your opponent report drawing? ",
            "catchKey": -1,
            "catchResponse": -1,
            "catchTime": 1642789442089,
            "trialTime": 0
        },
        {
            "exptPart": "trial",
            "trialNumber": 8,
            "roleCurrent": "receiver",
            "marblesSampled": 100,
            "probRed": 0.5,
            "lambda": 5,
            "drawnRed": 34,
            "reportedRed": 29,
            "inferredRed": 48,
            "playerTrialScore": -14,
            "oppTrialScore": 0,
            "playerTotalScore": -6,
            "oppTotalScore": -57,
            "waitTime": 6416.2045044584265,
            "responseTime": 1642789511787,
            "catchQuestion": "How many <b class=\"r\">red<\/b> marbles did your opponent report drawing? ",
            "catchKey": -1,
            "catchResponse": -1,
            "catchTime": 1642789442089,
            "trialTime": 0
        },
        {
            "exptPart": "trial",
            "trialNumber": 9,
            "roleCurrent": "sender",
            "marblesSampled": 100,
            "probRed": 0.5,
            "lambda": 5,
            "drawnRed": 28,
            "reportedRed": 28,
            "inferredRed": 38,
            "playerTrialScore": 0,
            "oppTrialScore": -10,
            "playerTotalScore": -6,
            "oppTotalScore": -67,
            "waitTime": 2562.961813074485,
            "responseTime": 1642789522153,
            "catchQuestion": "How many <b class=\"r\">red<\/b> marbles did your opponent report drawing? ",
            "catchKey": -1,
            "catchResponse": -1,
            "catchTime": 1642789442089,
            "trialTime": 0
        },
        {
            "exptPart": "trial",
            "trialNumber": 10,
            "roleCurrent": "receiver",
            "marblesSampled": 100,
            "probRed": 0.5,
            "lambda": 5,
            "drawnRed": 25,
            "reportedRed": 22,
            "inferredRed": 36,
            "playerTrialScore": -11,
            "oppTrialScore": 0,
            "playerTotalScore": -17,
            "oppTotalScore": -67,
            "waitTime": 5721.126093482049,
            "responseTime": 1642789536987,
            "catchQuestion": "How many <b class=\"r\">red<\/b> marbles did your opponent report drawing? ",
            "catchKey": -1,
            "catchResponse": -1,
            "catchTime": 1642789536987,
            "trialTime": 0
        },
        {
            "exptPart": "trial",
            "trialNumber": 11,
            "roleCurrent": "sender",
            "marblesSampled": 100,
            "probRed": 0.5,
            "lambda": 5,
            "drawnRed": 26,
            "reportedRed": 27,
            "inferredRed": 33,
            "playerTrialScore": 0,
            "oppTrialScore": -7,
            "playerTotalScore": -17,
            "oppTotalScore": -74,
            "waitTime": 3176.370230096673,
            "responseTime": 1642789549869,
            "catchQuestion": "How many <b class=\"r\">red<\/b> marbles did your opponent report drawing? ",
            "catchKey": -1,
            "catchResponse": -1,
            "catchTime": 1642789536987,
            "trialTime": 0
        },
        {
            "exptPart": "trial",
            "trialNumber": 12,
            "roleCurrent": "receiver",
            "marblesSampled": 100,
            "probRed": 0.5,
            "lambda": 5,
            "drawnRed": 45,
            "reportedRed": 40,
            "inferredRed": 34,
            "playerTrialScore": -11,
            "oppTrialScore": 11,
            "playerTotalScore": -28,
            "oppTotalScore": -63,
            "waitTime": 7178.7914439357555,
            "responseTime": 1642789567736,
            "catchQuestion": "How many <b class=\"r\">red<\/b> marbles did your opponent report drawing? ",
            "catchKey": -1,
            "catchResponse": -1,
            "catchTime": 1642789536987,
            "trialTime": 0
        },
        {
            "exptPart": "trial",
            "trialNumber": 13,
            "roleCurrent": "sender",
            "marblesSampled": 100,
            "probRed": 0.5,
            "lambda": 5,
            "drawnRed": 100,
            "reportedRed": 100,
            "inferredRed": 100,
            "playerTrialScore": 0,
            "oppTrialScore": 0,
            "playerTotalScore": -28,
            "oppTotalScore": -63,
            "waitTime": 2561.690469267101,
            "responseTime": 1642789576720,
            "catchQuestion": "How many <b class=\"r\">red<\/b> marbles did your opponent report drawing? ",
            "catchKey": -1,
            "catchResponse": -1,
            "catchTime": 1642789536987,
            "trialTime": 0
        },
        {
            "exptPart": "trial",
            "trialNumber": 14,
            "roleCurrent": "receiver",
            "marblesSampled": 100,
            "probRed": 0.5,
            "lambda": 5,
            "drawnRed": 62,
            "reportedRed": 58,
            "inferredRed": 34,
            "playerTrialScore": -28,
            "oppTrialScore": 28,
            "playerTotalScore": -56,
            "oppTotalScore": -35,
            "waitTime": 7140.624249576576,
            "responseTime": 1642789588969,
            "catchQuestion": "How many <b class=\"r\">red<\/b> marbles did your opponent report drawing? ",
            "catchKey": -1,
            "catchResponse": -1,
            "catchTime": 1642789536987,
            "trialTime": 0
        },
        {
            "exptPart": "trial",
            "trialNumber": 15,
            "roleCurrent": "sender",
            "marblesSampled": 100,
            "probRed": 0.5,
            "lambda": 5,
            "drawnRed": 33,
            "reportedRed": 42,
            "inferredRed": 45,
            "playerTrialScore": 0,
            "oppTrialScore": -12,
            "playerTotalScore": -56,
            "oppTotalScore": -47,
            "waitTime": 2063.017630076444,
            "responseTime": 1642789608675,
            "catchQuestion": "How many <b class=\"r\">red<\/b> marbles did you actually draw (before any changes)? ",
            "catchKey": 33,
            "catchResponse": 23,
            "catchTime": 1642789608675,
            "trialTime": 0
        },
        {
            "exptPart": "trial",
            "trialNumber": 16,
            "roleCurrent": "receiver",
            "marblesSampled": 100,
            "probRed": 0.5,
            "lambda": 5,
            "drawnRed": 58,
            "reportedRed": 52,
            "inferredRed": 24,
            "playerTrialScore": -34,
            "oppTrialScore": 34,
            "playerTotalScore": -90,
            "oppTotalScore": -13,
            "waitTime": 6293.750278105925,
            "responseTime": 1642789633535,
            "catchQuestion": "How many <b class=\"r\">red<\/b> marbles did you actually draw (before any changes)? ",
            "catchKey": -1,
            "catchResponse": -1,
            "catchTime": 1642789608675,
            "trialTime": 0
        },
        {
            "exptPart": "trial",
            "trialNumber": 17,
            "roleCurrent": "sender",
            "marblesSampled": 100,
            "probRed": 0.5,
            "lambda": 5,
            "drawnRed": 46,
            "reportedRed": 46,
            "inferredRed": 54,
            "playerTrialScore": 0,
            "oppTrialScore": -8,
            "playerTotalScore": -90,
            "oppTotalScore": -21,
            "waitTime": 2153.0118019773267,
            "responseTime": 1642789641566,
            "catchQuestion": "How many <b class=\"r\">red<\/b> marbles did you actually draw (before any changes)? ",
            "catchKey": 46,
            "catchResponse": 34,
            "catchTime": 1642789641567,
            "trialTime": 0
        },
        {
            "exptPart": "trial",
            "trialNumber": 18,
            "roleCurrent": "receiver",
            "marblesSampled": 100,
            "probRed": 0.5,
            "lambda": 5,
            "drawnRed": 32,
            "reportedRed": 29,
            "inferredRed": 74,
            "playerTrialScore": -42,
            "oppTrialScore": 0,
            "playerTotalScore": -132,
            "oppTotalScore": -21,
            "waitTime": 5815.114346373164,
            "responseTime": 1642789659117,
            "catchQuestion": "How many <b class=\"r\">red<\/b> marbles did you actually draw (before any changes)? ",
            "catchKey": -1,
            "catchResponse": -1,
            "catchTime": 1642789641567,
            "trialTime": 0
        },
        {
            "exptPart": "trial",
            "trialNumber": 19,
            "roleCurrent": "sender",
            "marblesSampled": 100,
            "probRed": 0.5,
            "lambda": 5,
            "drawnRed": 52,
            "reportedRed": 52,
            "inferredRed": 55,
            "playerTrialScore": 0,
            "oppTrialScore": -3,
            "playerTotalScore": -132,
            "oppTotalScore": -24,
            "waitTime": 2622.9112549969523,
            "responseTime": 1642789667052,
            "catchQuestion": "How many <b class=\"r\">red<\/b> marbles did you actually draw (before any changes)? ",
            "catchKey": -1,
            "catchResponse": -1,
            "catchTime": 1642789641567,
            "trialTime": 0
        },
        {
            "exptPart": "trial",
            "trialNumber": 20,
            "roleCurrent": "receiver",
            "marblesSampled": 100,
            "probRed": 0.5,
            "lambda": 5,
            "drawnRed": 83,
            "reportedRed": 79,
            "inferredRed": 78,
            "playerTrialScore": -5,
            "oppTrialScore": 5,
            "playerTotalScore": -137,
            "oppTotalScore": -19,
            "waitTime": 6424.413004105889,
            "responseTime": 1642789677268,
            "catchQuestion": "How many <b class=\"r\">red<\/b> marbles did you actually draw (before any changes)? ",
            "catchKey": -1,
            "catchResponse": -1,
            "catchTime": 1642789677268,
            "trialTime": 0
        },
        {
            "exptPart": "trial",
            "trialNumber": 21,
            "roleCurrent": "sender",
            "marblesSampled": 100,
            "probRed": 0.5,
            "lambda": 5,
            "drawnRed": 22,
            "reportedRed": 22,
            "inferredRed": 27,
            "playerTrialScore": 0,
            "oppTrialScore": -5,
            "playerTotalScore": -137,
            "oppTotalScore": -24,
            "waitTime": 3156.327820637445,
            "responseTime": 1642789687468,
            "catchQuestion": "How many <b class=\"r\">red<\/b> marbles did you actually draw (before any changes)? ",
            "catchKey": 22,
            "catchResponse": 22,
            "catchTime": 1642789687468,
            "trialTime": 0
        },
        {
            "exptPart": "trial",
            "trialNumber": 22,
            "roleCurrent": "receiver",
            "marblesSampled": 100,
            "probRed": 0.5,
            "lambda": 5,
            "drawnRed": 40,
            "reportedRed": 34,
            "inferredRed": 35,
            "playerTrialScore": -5,
            "oppTrialScore": 5,
            "playerTotalScore": -142,
            "oppTotalScore": -19,
            "waitTime": 6585.81751620364,
            "responseTime": 1642789708785,
            "catchQuestion": "How many <b class=\"r\">red<\/b> marbles did you actually draw (before any changes)? ",
            "catchKey": -1,
            "catchResponse": -1,
            "catchTime": 1642789687468,
            "trialTime": 0
        },
        {
            "exptPart": "trial",
            "trialNumber": 23,
            "roleCurrent": "sender",
            "marblesSampled": 100,
            "probRed": 0.5,
            "lambda": 5,
            "drawnRed": 25,
            "reportedRed": 39,
            "inferredRed": 41,
            "playerTrialScore": 0,
            "oppTrialScore": -16,
            "playerTotalScore": -142,
            "oppTotalScore": -35,
            "waitTime": 2509.7475267689797,
            "responseTime": 1642789729834,
            "catchQuestion": "How many <b class=\"r\">red<\/b> marbles did you actually draw (before any changes)? ",
            "catchKey": -1,
            "catchResponse": -1,
            "catchTime": 1642789687468,
            "trialTime": 0
        },
        {
            "exptPart": "trial",
            "trialNumber": 24,
            "roleCurrent": "receiver",
            "marblesSampled": 100,
            "probRed": 0.5,
            "lambda": 5,
            "drawnRed": 24,
            "reportedRed": 21,
            "inferredRed": 45,
            "playerTrialScore": -21,
            "oppTrialScore": 0,
            "playerTotalScore": -163,
            "oppTotalScore": -35,
            "waitTime": 5190.784749912395,
            "responseTime": 1642789739818,
            "catchQuestion": "How many <b class=\"r\">red<\/b> marbles did you actually draw (before any changes)? ",
            "catchKey": -1,
            "catchResponse": -1,
            "catchTime": 1642789687468,
            "trialTime": 0
        },
        {
            "exptPart": "trial",
            "trialNumber": 25,
            "roleCurrent": "sender",
            "marblesSampled": 100,
            "probRed": 0.5,
            "lambda": 5,
            "drawnRed": 62,
            "reportedRed": 57,
            "inferredRed": 65,
            "playerTrialScore": 0,
            "oppTrialScore": -3,
            "playerTotalScore": -163,
            "oppTotalScore": -38,
            "waitTime": 2617.82503353844,
            "responseTime": 1642789755467,
            "catchQuestion": "How many <b class=\"r\">red<\/b> marbles did you actually draw (before any changes)? ",
            "catchKey": -1,
            "catchResponse": -1,
            "catchTime": 1642789755468,
            "trialTime": 0
        },
        {
            "exptPart": "trial",
            "trialNumber": 26,
            "roleCurrent": "receiver",
            "marblesSampled": 100,
            "probRed": 0.5,
            "lambda": 5,
            "drawnRed": 37,
            "reportedRed": 33,
            "inferredRed": 64,
            "playerTrialScore": -27,
            "oppTrialScore": 0,
            "playerTotalScore": -190,
            "oppTotalScore": -38,
            "waitTime": 5537.140187527779,
            "responseTime": 1642789767916,
            "catchQuestion": "How many <b class=\"r\">red<\/b> marbles did you actually draw (before any changes)? ",
            "catchKey": -1,
            "catchResponse": -1,
            "catchTime": 1642789755468,
            "trialTime": 0
        },
        {
            "exptPart": "trial",
            "trialNumber": 27,
            "roleCurrent": "sender",
            "marblesSampled": 100,
            "probRed": 0.5,
            "lambda": 5,
            "drawnRed": 50,
            "reportedRed": 50,
            "inferredRed": 53,
            "playerTrialScore": 0,
            "oppTrialScore": -3,
            "playerTotalScore": -190,
            "oppTotalScore": -41,
            "waitTime": 2357.9286001776636,
            "responseTime": 1642789784667,
            "catchQuestion": "How many <b class=\"r\">red<\/b> marbles did you actually draw (before any changes)? ",
            "catchKey": -1,
            "catchResponse": -1,
            "catchTime": 1642789755468,
            "trialTime": 0
        },
        {
            "exptPart": "trial",
            "trialNumber": 28,
            "roleCurrent": "receiver",
            "marblesSampled": 100,
            "probRed": 0.5,
            "lambda": 5,
            "drawnRed": 56,
            "reportedRed": 52,
            "inferredRed": 24,
            "playerTrialScore": -32,
            "oppTrialScore": 32,
            "playerTotalScore": -222,
            "oppTotalScore": -9,
            "waitTime": 5680.772513967,
            "responseTime": 1642789792884,
            "catchQuestion": "How many <b class=\"r\">red<\/b> marbles did you actually draw (before any changes)? ",
            "catchKey": -1,
            "catchResponse": -1,
            "catchTime": 1642789755468,
            "trialTime": 0
        },
        {
            "exptPart": "trial",
            "trialNumber": 29,
            "roleCurrent": "sender",
            "marblesSampled": 100,
            "probRed": 0.5,
            "lambda": 5,
            "drawnRed": 58,
            "reportedRed": 58,
            "inferredRed": 66,
            "playerTrialScore": 0,
            "oppTrialScore": -8,
            "playerTotalScore": -222,
            "oppTotalScore": -17,
            "waitTime": 3013.8216835303347,
            "responseTime": 1642789801850,
            "catchQuestion": "How many <b class=\"r\">red<\/b> marbles did you actually draw (before any changes)? ",
            "catchKey": -1,
            "catchResponse": -1,
            "catchTime": 1642789755468,
            "trialTime": 0
        },
        {
            "exptPart": "trial",
            "trialNumber": 30,
            "roleCurrent": "receiver",
            "marblesSampled": 100,
            "probRed": 0.5,
            "lambda": 5,
            "drawnRed": 30,
            "reportedRed": 23,
            "inferredRed": 36,
            "playerTrialScore": -6,
            "oppTrialScore": 0,
            "playerTotalScore": -228,
            "oppTotalScore": -17,
            "waitTime": 6803.688294703523,
            "responseTime": 1642789848666,
            "catchQuestion": "How many <b class=\"r\">red<\/b> marbles did you actually draw (before any changes)? ",
            "catchKey": -1,
            "catchResponse": -1,
            "catchTime": 1642789848666,
            "trialTime": 0
        },
        {
            "exptPart": "trial",
            "trialNumber": 31,
            "roleCurrent": "sender",
            "marblesSampled": 100,
            "probRed": 0.5,
            "lambda": 5,
            "drawnRed": 36,
            "reportedRed": 36,
            "inferredRed": 40,
            "playerTrialScore": 0,
            "oppTrialScore": -4,
            "playerTotalScore": -228,
            "oppTotalScore": -21,
            "waitTime": 2800.9940035123464,
            "responseTime": 1642789858050,
            "catchQuestion": "How many <b class=\"r\">red<\/b> marbles did you actually draw (before any changes)? ",
            "catchKey": -1,
            "catchResponse": -1,
            "catchTime": 1642789848666,
            "trialTime": 0
        },
        {
            "exptPart": "trial",
            "trialNumber": 32,
            "roleCurrent": "receiver",
            "marblesSampled": 100,
            "probRed": 0.5,
            "lambda": 5,
            "drawnRed": 44,
            "reportedRed": 35,
            "inferredRed": 46,
            "playerTrialScore": -2,
            "oppTrialScore": 0,
            "playerTotalScore": -230,
            "oppTotalScore": -21,
            "waitTime": 6496.167214776393,
            "responseTime": 1642789910967,
            "catchQuestion": "How many <b class=\"r\">red<\/b> marbles did you actually draw (before any changes)? ",
            "catchKey": -1,
            "catchResponse": -1,
            "catchTime": 1642789848666,
            "trialTime": 0
        },
        {
            "exptPart": "trial",
            "trialNumber": 33,
            "roleCurrent": "sender",
            "marblesSampled": 100,
            "probRed": 0.5,
            "lambda": 5,
            "drawnRed": 60,
            "reportedRed": 60,
            "inferredRed": 68,
            "playerTrialScore": 0,
            "oppTrialScore": -8,
            "playerTotalScore": -230,
            "oppTotalScore": -29,
            "waitTime": 2280.2814000870576,
            "responseTime": 1642790012333,
            "catchQuestion": "How many <b class=\"r\">red<\/b> marbles did you actually draw (before any changes)? ",
            "catchKey": -1,
            "catchResponse": -1,
            "catchTime": 1642789848666,
            "trialTime": 0
        },
        {
            "exptPart": "trial",
            "trialNumber": 34,
            "roleCurrent": "receiver",
            "marblesSampled": 100,
            "probRed": 0.5,
            "lambda": 5,
            "drawnRed": 24,
            "reportedRed": 17,
            "inferredRed": 55,
            "playerTrialScore": -31,
            "oppTrialScore": 0,
            "playerTotalScore": -261,
            "oppTotalScore": -29,
            "waitTime": 5915.559821816421,
            "responseTime": 1642790021184,
            "catchQuestion": "How many <b class=\"r\">red<\/b> marbles did you actually draw (before any changes)? ",
            "catchKey": -1,
            "catchResponse": -1,
            "catchTime": 1642789848666,
            "trialTime": 0
        },
        {
            "exptPart": "trial",
            "trialNumber": 35,
            "roleCurrent": "sender",
            "marblesSampled": 100,
            "probRed": 0.5,
            "lambda": 5,
            "drawnRed": 37,
            "reportedRed": 37,
            "inferredRed": 40,
            "playerTrialScore": 0,
            "oppTrialScore": -3,
            "playerTotalScore": -261,
            "oppTotalScore": -32,
            "waitTime": 2817.9452614843317,
            "responseTime": 1642790028982,
            "catchQuestion": "How many <b class=\"r\">red<\/b> marbles did you actually draw (before any changes)? ",
            "catchKey": -1,
            "catchResponse": -1,
            "catchTime": 1642790028982,
            "trialTime": 0
        },
        {
            "exptPart": "trial",
            "trialNumber": 36,
            "roleCurrent": "receiver",
            "marblesSampled": 100,
            "probRed": 0.5,
            "lambda": 5,
            "drawnRed": 27,
            "reportedRed": 19,
            "inferredRed": 64,
            "playerTrialScore": -37,
            "oppTrialScore": 0,
            "playerTotalScore": -298,
            "oppTotalScore": -32,
            "waitTime": 5512.066070789415,
            "responseTime": 1642790038664,
            "catchQuestion": "How many <b class=\"r\">red<\/b> marbles did your opponent report drawing? ",
            "catchKey": 19,
            "catchResponse": 24,
            "catchTime": 1642790038664,
            "trialTime": 0
        },
        {
            "exptPart": "trial",
            "trialNumber": 37,
            "roleCurrent": "sender",
            "marblesSampled": 100,
            "probRed": 0.5,
            "lambda": 5,
            "drawnRed": 44,
            "reportedRed": 44,
            "inferredRed": 48,
            "playerTrialScore": 0,
            "oppTrialScore": -4,
            "playerTotalScore": -298,
            "oppTotalScore": -36,
            "waitTime": 2324.2880591396106,
            "responseTime": 1642790130038,
            "catchQuestion": "How many <b class=\"r\">red<\/b> marbles did your opponent report drawing? ",
            "catchKey": -1,
            "catchResponse": -1,
            "catchTime": 1642790038664,
            "trialTime": 0
        },
        {
            "exptPart": "trial",
            "trialNumber": 38,
            "roleCurrent": "receiver",
            "marblesSampled": 100,
            "probRed": 0.5,
            "lambda": 5,
            "drawnRed": 35,
            "reportedRed": 30,
            "inferredRed": 47,
            "playerTrialScore": -12,
            "oppTrialScore": 0,
            "playerTotalScore": -310,
            "oppTotalScore": -36,
            "waitTime": 7465.424396320077,
            "responseTime": 1642790140064,
            "catchQuestion": "How many <b class=\"r\">red<\/b> marbles did your opponent report drawing? ",
            "catchKey": -1,
            "catchResponse": -1,
            "catchTime": 1642790038664,
            "trialTime": 0
        },
        {
            "exptPart": "trial",
            "trialNumber": 39,
            "roleCurrent": "sender",
            "marblesSampled": 100,
            "probRed": 0.5,
            "lambda": 5,
            "drawnRed": 64,
            "reportedRed": 64,
            "inferredRed": 70,
            "playerTrialScore": 0,
            "oppTrialScore": -6,
            "playerTotalScore": -310,
            "oppTotalScore": -42,
            "waitTime": 2961.572248035144,
            "responseTime": 1642790240828,
            "catchQuestion": "How many <b class=\"r\">red<\/b> marbles did your opponent report drawing? ",
            "catchKey": -1,
            "catchResponse": -1,
            "catchTime": 1642790038664,
            "trialTime": 0
        },
        {
            "exptPart": "trial",
            "trialNumber": 40,
            "roleCurrent": "receiver",
            "marblesSampled": 100,
            "probRed": 0.5,
            "lambda": 5,
            "drawnRed": 95,
            "reportedRed": 93,
            "inferredRed": 12,
            "playerTrialScore": -83,
            "oppTrialScore": 83,
            "playerTotalScore": -393,
            "oppTotalScore": 41,
            "waitTime": 5230.164408697806,
            "responseTime": 1642790249513,
            "catchQuestion": "How many <b class=\"r\">red<\/b> marbles did your opponent report drawing? ",
            "catchKey": -1,
            "catchResponse": -1,
            "catchTime": 1642790249513,
            "trialTime": 0
        },
        {
            "exptPart": "trial",
            "trialNumber": 41,
            "roleCurrent": "sender",
            "marblesSampled": 100,
            "probRed": 0.5,
            "lambda": 5,
            "drawnRed": 77,
            "reportedRed": 77,
            "inferredRed": 81,
            "playerTrialScore": 0,
            "oppTrialScore": -4,
            "playerTotalScore": -393,
            "oppTotalScore": 37,
            "waitTime": 2331.29301510971,
            "responseTime": 1642790257581,
            "catchQuestion": "How many <b class=\"r\">red<\/b> marbles did your opponent report drawing? ",
            "catchKey": -1,
            "catchResponse": -1,
            "catchTime": 1642790249513,
            "trialTime": 0
        },
        {
            "exptPart": "trial",
            "trialNumber": 42,
            "roleCurrent": "receiver",
            "marblesSampled": 100,
            "probRed": 0.5,
            "lambda": 5,
            "drawnRed": 43,
            "reportedRed": 42,
            "inferredRed": 23,
            "playerTrialScore": -20,
            "oppTrialScore": 20,
            "playerTotalScore": -413,
            "oppTotalScore": 57,
            "waitTime": 6725.1130928145885,
            "responseTime": 1642790268695,
            "catchQuestion": "How many <b class=\"r\">red<\/b> marbles did your opponent report drawing? ",
            "catchKey": -1,
            "catchResponse": -1,
            "catchTime": 1642790249513,
            "trialTime": 0
        },
        {
            "exptPart": "trial",
            "trialNumber": 43,
            "roleCurrent": "sender",
            "marblesSampled": 100,
            "probRed": 0.5,
            "lambda": 5,
            "drawnRed": 41,
            "reportedRed": 41,
            "inferredRed": 44,
            "playerTrialScore": 0,
            "oppTrialScore": -3,
            "playerTotalScore": -413,
            "oppTotalScore": 54,
            "waitTime": 3038.094118350471,
            "responseTime": 1642790276346,
            "catchQuestion": "How many <b class=\"r\">red<\/b> marbles did your opponent report drawing? ",
            "catchKey": -1,
            "catchResponse": -1,
            "catchTime": 1642790249513,
            "trialTime": 0
        },
        {
            "exptPart": "trial",
            "trialNumber": 44,
            "roleCurrent": "receiver",
            "marblesSampled": 100,
            "probRed": 0.5,
            "lambda": 5,
            "drawnRed": 39,
            "reportedRed": 31,
            "inferredRed": 33,
            "playerTrialScore": -6,
            "oppTrialScore": 6,
            "playerTotalScore": -419,
            "oppTotalScore": 60,
            "waitTime": 6273.181482829763,
            "responseTime": 1642790285646,
            "catchQuestion": "How many <b class=\"r\">red<\/b> marbles did your opponent report drawing? ",
            "catchKey": -1,
            "catchResponse": -1,
            "catchTime": 1642790249513,
            "trialTime": 0
        },
        {
            "exptPart": "trial",
            "trialNumber": 45,
            "roleCurrent": "sender",
            "marblesSampled": 100,
            "probRed": 0.5,
            "lambda": 5,
            "drawnRed": 40,
            "reportedRed": 40,
            "inferredRed": 43,
            "playerTrialScore": 0,
            "oppTrialScore": -3,
            "playerTotalScore": -419,
            "oppTotalScore": 57,
            "waitTime": 2562.9634870670798,
            "responseTime": 1642790294448,
            "catchQuestion": "How many <b class=\"r\">red<\/b> marbles did you actually draw (before any changes)? ",
            "catchKey": 40,
            "catchResponse": 40,
            "catchTime": 1642790294448,
            "trialTime": 0
        },
        {
            "exptPart": "trial",
            "trialNumber": 46,
            "roleCurrent": "receiver",
            "marblesSampled": 100,
            "probRed": 0.5,
            "lambda": 5,
            "drawnRed": 23,
            "reportedRed": 15,
            "inferredRed": 37,
            "playerTrialScore": -14,
            "oppTrialScore": 0,
            "playerTotalScore": -433,
            "oppTotalScore": 57,
            "waitTime": 6336.960964974011,
            "responseTime": 1642790310630,
            "catchQuestion": "How many <b class=\"r\">red<\/b> marbles did you actually draw (before any changes)? ",
            "catchKey": -1,
            "catchResponse": -1,
            "catchTime": 1642790294448,
            "trialTime": 0
        },
        {
            "exptPart": "trial",
            "trialNumber": 47,
            "roleCurrent": "sender",
            "marblesSampled": 100,
            "probRed": 0.5,
            "lambda": 5,
            "drawnRed": 24,
            "reportedRed": 24,
            "inferredRed": 26,
            "playerTrialScore": 0,
            "oppTrialScore": -2,
            "playerTotalScore": -433,
            "oppTotalScore": 55,
            "waitTime": 2140.5362862887373,
            "responseTime": 1642790317846,
            "catchQuestion": "How many <b class=\"r\">red<\/b> marbles did you actually draw (before any changes)? ",
            "catchKey": -1,
            "catchResponse": -1,
            "catchTime": 1642790294448,
            "trialTime": 0
        },
        {
            "exptPart": "trial",
            "trialNumber": 48,
            "roleCurrent": "receiver",
            "marblesSampled": 100,
            "probRed": 0.5,
            "lambda": 5,
            "drawnRed": 79,
            "reportedRed": 77,
            "inferredRed": 78,
            "playerTrialScore": -1,
            "oppTrialScore": 1,
            "playerTotalScore": -434,
            "oppTotalScore": 56,
            "waitTime": 7097.26225318033,
            "responseTime": 1642790330414,
            "catchQuestion": "How many <b class=\"r\">red<\/b> marbles did you actually draw (before any changes)? ",
            "catchKey": -1,
            "catchResponse": -1,
            "catchTime": 1642790294448,
            "trialTime": 0
        },
        {
            "exptPart": "trial",
            "trialNumber": 49,
            "roleCurrent": "sender",
            "marblesSampled": 100,
            "probRed": 0.5,
            "lambda": 5,
            "drawnRed": 17,
            "reportedRed": 17,
            "inferredRed": 29,
            "playerTrialScore": 0,
            "oppTrialScore": -12,
            "playerTotalScore": -434,
            "oppTotalScore": 44,
            "waitTime": 2966.111772454889,
            "responseTime": 1642790339909,
            "catchQuestion": "How many <b class=\"r\">red<\/b> marbles did you actually draw (before any changes)? ",
            "catchKey": -1,
            "catchResponse": -1,
            "catchTime": 1642790294448,
            "trialTime": 0
        },
        {
            "exptPart": "trial",
            "trialNumber": 50,
            "roleCurrent": "receiver",
            "marblesSampled": 100,
            "probRed": 0.5,
            "lambda": 5,
            "drawnRed": 53,
            "reportedRed": 46,
            "inferredRed": 47,
            "playerTrialScore": -6,
            "oppTrialScore": 6,
            "playerTotalScore": -440,
            "oppTotalScore": 50,
            "waitTime": 6246.990536311205,
            "responseTime": 1642790351294,
            "catchQuestion": "How many <b class=\"r\">red<\/b> marbles did you actually draw (before any changes)? ",
            "catchKey": -1,
            "catchResponse": -1,
            "catchTime": 1642790351295,
            "trialTime": 0
        },
        {
            "exptPart": "trial",
            "trialNumber": 51,
            "roleCurrent": "sender",
            "marblesSampled": 100,
            "probRed": 0.5,
            "lambda": 5,
            "drawnRed": 57,
            "reportedRed": 57,
            "inferredRed": 59,
            "playerTrialScore": 0,
            "oppTrialScore": -2,
            "playerTotalScore": -440,
            "oppTotalScore": 48,
            "waitTime": 2296.515020422373,
            "responseTime": 1642790361020,
            "catchQuestion": "How many <b class=\"r\">red<\/b> marbles did you actually draw (before any changes)? ",
            "catchKey": -1,
            "catchResponse": -1,
            "catchTime": 1642790351295,
            "trialTime": 0
        },
        {
            "exptPart": "trial",
            "trialNumber": 52,
            "roleCurrent": "receiver",
            "marblesSampled": 100,
            "probRed": 0.5,
            "lambda": 5,
            "drawnRed": 61,
            "reportedRed": 52,
            "inferredRed": 53,
            "playerTrialScore": -8,
            "oppTrialScore": 8,
            "playerTotalScore": -448,
            "oppTotalScore": 56,
            "waitTime": 7015.172962215352,
            "responseTime": 1642790371511,
            "catchQuestion": "How many <b class=\"r\">red<\/b> marbles did you actually draw (before any changes)? ",
            "catchKey": -1,
            "catchResponse": -1,
            "catchTime": 1642790351295,
            "trialTime": 0
        },
        {
            "exptPart": "trial",
            "trialNumber": 53,
            "roleCurrent": "sender",
            "marblesSampled": 100,
            "probRed": 0.5,
            "lambda": 5,
            "drawnRed": 36,
            "reportedRed": 36,
            "inferredRed": 42,
            "playerTrialScore": 0,
            "oppTrialScore": -6,
            "playerTotalScore": -448,
            "oppTotalScore": 50,
            "waitTime": 2465.083123932618,
            "responseTime": 1642790380832,
            "catchQuestion": "How many <b class=\"r\">red<\/b> marbles did you actually draw (before any changes)? ",
            "catchKey": -1,
            "catchResponse": -1,
            "catchTime": 1642790351295,
            "trialTime": 0
        },
        {
            "exptPart": "trial",
            "trialNumber": 54,
            "roleCurrent": "receiver",
            "marblesSampled": 100,
            "probRed": 0.5,
            "lambda": 5,
            "drawnRed": 51,
            "reportedRed": 48,
            "inferredRed": 65,
            "playerTrialScore": -14,
            "oppTrialScore": 0,
            "playerTotalScore": -462,
            "oppTotalScore": 50,
            "waitTime": 6492.902346490084,
            "responseTime": 1642790446645,
            "catchQuestion": "How many <b class=\"r\">red<\/b> marbles did you actually draw (before any changes)? ",
            "catchKey": -1,
            "catchResponse": -1,
            "catchTime": 1642790351295,
            "trialTime": 0
        },
        {
            "exptPart": "trial",
            "trialNumber": 55,
            "roleCurrent": "sender",
            "marblesSampled": 100,
            "probRed": 0.5,
            "lambda": 5,
            "drawnRed": 41,
            "reportedRed": 41,
            "inferredRed": 44,
            "playerTrialScore": 0,
            "oppTrialScore": -3,
            "playerTotalScore": -462,
            "oppTotalScore": 47,
            "waitTime": 3231.4801487623135,
            "responseTime": 1642790453927,
            "catchQuestion": "How many <b class=\"r\">red<\/b> marbles did you actually draw (before any changes)? ",
            "catchKey": -1,
            "catchResponse": -1,
            "catchTime": 1642790453928,
            "trialTime": 0
        },
        {
            "exptPart": "trial",
            "trialNumber": 56,
            "roleCurrent": "receiver",
            "marblesSampled": 100,
            "probRed": 0.5,
            "lambda": 5,
            "drawnRed": 29,
            "reportedRed": 25,
            "inferredRed": 43,
            "playerTrialScore": -14,
            "oppTrialScore": 0,
            "playerTotalScore": -476,
            "oppTotalScore": 47,
            "waitTime": 5228.570563538295,
            "responseTime": 1642790463541,
            "catchQuestion": "How many <b class=\"r\">red<\/b> marbles did you actually draw (before any changes)? ",
            "catchKey": -1,
            "catchResponse": -1,
            "catchTime": 1642790453928,
            "trialTime": 0
        },
        {
            "exptPart": "trial",
            "trialNumber": 57,
            "roleCurrent": "sender",
            "marblesSampled": 100,
            "probRed": 0.5,
            "lambda": 5,
            "drawnRed": 53,
            "reportedRed": 53,
            "inferredRed": 55,
            "playerTrialScore": 0,
            "oppTrialScore": -2,
            "playerTotalScore": -476,
            "oppTotalScore": 45,
            "waitTime": 2184.621986822444,
            "responseTime": 1642790470628,
            "catchQuestion": "How many <b class=\"r\">red<\/b> marbles did you actually draw (before any changes)? ",
            "catchKey": -1,
            "catchResponse": -1,
            "catchTime": 1642790453928,
            "trialTime": 0
        },
        {
            "exptPart": "trial",
            "trialNumber": 58,
            "roleCurrent": "receiver",
            "marblesSampled": 100,
            "probRed": 0.5,
            "lambda": 5,
            "drawnRed": 77,
            "reportedRed": 69,
            "inferredRed": 67,
            "playerTrialScore": -10,
            "oppTrialScore": 10,
            "playerTotalScore": -486,
            "oppTotalScore": 55,
            "waitTime": 5292.073453074562,
            "responseTime": 1642790479378,
            "catchQuestion": "How many <b class=\"r\">red<\/b> marbles did you actually draw (before any changes)? ",
            "catchKey": -1,
            "catchResponse": -1,
            "catchTime": 1642790453928,
            "trialTime": 0
        },
        {
            "exptPart": "trial",
            "trialNumber": 59,
            "roleCurrent": "sender",
            "marblesSampled": 100,
            "probRed": 0.5,
            "lambda": 5,
            "drawnRed": 44,
            "reportedRed": 31,
            "inferredRed": 38,
            "playerTrialScore": 6,
            "oppTrialScore": -6,
            "playerTotalScore": -480,
            "oppTotalScore": 49,
            "waitTime": 2869.0053639049415,
            "responseTime": 1642790506594,
            "catchQuestion": "How many <b class=\"r\">red<\/b> marbles did you actually draw (before any changes)? ",
            "catchKey": 44,
            "catchResponse": 33,
            "catchTime": 1642790506594,
            "trialTime": 0
        },
        {
            "exptPart": "trial",
            "trialNumber": 60,
            "roleCurrent": "receiver",
            "marblesSampled": 100,
            "probRed": 0.5,
            "lambda": 5,
            "drawnRed": 67,
            "reportedRed": 62,
            "inferredRed": 27,
            "playerTrialScore": -40,
            "oppTrialScore": 40,
            "playerTotalScore": -520,
            "oppTotalScore": 89,
            "waitTime": 7000.006866534255,
            "responseTime": 1642790568945,
            "catchQuestion": "How many <b class=\"r\">red<\/b> marbles did you actually draw (before any changes)? ",
            "catchKey": -1,
            "catchResponse": -1,
            "catchTime": 1642790568945,
            "trialTime": 0
        },
        {
            "exptPart": "trial",
            "trialNumber": 61,
            "roleCurrent": "sender",
            "marblesSampled": 100,
            "probRed": 0.5,
            "lambda": 5,
            "drawnRed": 54,
            "reportedRed": 54,
            "inferredRed": 57,
            "playerTrialScore": 0,
            "oppTrialScore": -3,
            "playerTotalScore": -520,
            "oppTotalScore": 86,
            "waitTime": 2331.161536376211,
            "responseTime": 1642790741658,
            "catchQuestion": "How many <b class=\"r\">red<\/b> marbles did you actually draw (before any changes)? ",
            "catchKey": -1,
            "catchResponse": -1,
            "catchTime": 1642790568945,
            "trialTime": 0
        },
        {
            "exptPart": "trial",
            "trialNumber": 62,
            "roleCurrent": "receiver",
            "marblesSampled": 100,
            "probRed": 0.5,
            "lambda": 5,
            "drawnRed": 60,
            "reportedRed": 55,
            "inferredRed": 56,
            "playerTrialScore": -4,
            "oppTrialScore": 4,
            "playerTotalScore": -524,
            "oppTotalScore": 90,
            "waitTime": 5809.031121367898,
            "responseTime": 1642790751124,
            "catchQuestion": "How many <b class=\"r\">red<\/b> marbles did you actually draw (before any changes)? ",
            "catchKey": -1,
            "catchResponse": -1,
            "catchTime": 1642790568945,
            "trialTime": 0
        },
        {
            "exptPart": "trial",
            "trialNumber": 63,
            "roleCurrent": "sender",
            "marblesSampled": 100,
            "probRed": 0.5,
            "lambda": 5,
            "drawnRed": 68,
            "reportedRed": 68,
            "inferredRed": 74,
            "playerTrialScore": 0,
            "oppTrialScore": -6,
            "playerTotalScore": -524,
            "oppTotalScore": 84,
            "waitTime": 2256.0658341051735,
            "responseTime": 1642790819722,
            "catchQuestion": "How many <b class=\"r\">red<\/b> marbles did you actually draw (before any changes)? ",
            "catchKey": -1,
            "catchResponse": -1,
            "catchTime": 1642790568945,
            "trialTime": 0
        },
        {
            "exptPart": "trial",
            "trialNumber": 64,
            "roleCurrent": "receiver",
            "marblesSampled": 100,
            "probRed": 0.5,
            "lambda": 5,
            "drawnRed": 17,
            "reportedRed": 12,
            "inferredRed": 34,
            "playerTrialScore": -17,
            "oppTrialScore": 0,
            "playerTotalScore": -541,
            "oppTotalScore": 84,
            "waitTime": 6245.068047043325,
            "responseTime": 1642790829046,
            "catchQuestion": "How many <b class=\"r\">red<\/b> marbles did you actually draw (before any changes)? ",
            "catchKey": -1,
            "catchResponse": -1,
            "catchTime": 1642790568945,
            "trialTime": 0
        },
        {
            "exptPart": "trial",
            "trialNumber": 65,
            "roleCurrent": "sender",
            "marblesSampled": 100,
            "probRed": 0.5,
            "lambda": 5,
            "drawnRed": 72,
            "reportedRed": 72,
            "inferredRed": 79,
            "playerTrialScore": 0,
            "oppTrialScore": -7,
            "playerTotalScore": -541,
            "oppTotalScore": 77,
            "waitTime": 2209.2887460455295,
            "responseTime": 1642790835542,
            "catchQuestion": "How many <b class=\"r\">red<\/b> marbles did you actually draw (before any changes)? ",
            "catchKey": -1,
            "catchResponse": -1,
            "catchTime": 1642790835542,
            "trialTime": 0
        },
        {
            "exptPart": "trial",
            "trialNumber": 66,
            "roleCurrent": "receiver",
            "marblesSampled": 100,
            "probRed": 0.5,
            "lambda": 5,
            "drawnRed": 43,
            "reportedRed": 40,
            "inferredRed": 34,
            "playerTrialScore": -9,
            "oppTrialScore": 9,
            "playerTotalScore": -550,
            "oppTotalScore": 86,
            "waitTime": 5559.351639509344,
            "responseTime": 1642790847855,
            "catchQuestion": "How many <b class=\"r\">red<\/b> marbles did you actually draw (before any changes)? ",
            "catchKey": -1,
            "catchResponse": -1,
            "catchTime": 1642790835542,
            "trialTime": 0
        },
        {
            "exptPart": "trial",
            "trialNumber": 67,
            "roleCurrent": "sender",
            "marblesSampled": 100,
            "probRed": 0.5,
            "lambda": 5,
            "drawnRed": 26,
            "reportedRed": 26,
            "inferredRed": 34,
            "playerTrialScore": 0,
            "oppTrialScore": -8,
            "playerTotalScore": -550,
            "oppTotalScore": 78,
            "waitTime": 2818.427018303103,
            "responseTime": 1642790855905,
            "catchQuestion": "How many <b class=\"r\">red<\/b> marbles did you actually draw (before any changes)? ",
            "catchKey": -1,
            "catchResponse": -1,
            "catchTime": 1642790835542,
            "trialTime": 0
        },
        {
            "exptPart": "trial",
            "trialNumber": 68,
            "roleCurrent": "receiver",
            "marblesSampled": 100,
            "probRed": 0.5,
            "lambda": 5,
            "drawnRed": 43,
            "reportedRed": 38,
            "inferredRed": 43,
            "playerTrialScore": 0,
            "oppTrialScore": 0,
            "playerTotalScore": -550,
            "oppTotalScore": 78,
            "waitTime": 5323.669289416081,
            "responseTime": 1642790869105,
            "catchQuestion": "How many <b class=\"r\">red<\/b> marbles did you actually draw (before any changes)? ",
            "catchKey": -1,
            "catchResponse": -1,
            "catchTime": 1642790835542,
            "trialTime": 0
        },
        {
            "exptPart": "trial",
            "trialNumber": 69,
            "roleCurrent": "sender",
            "marblesSampled": 100,
            "probRed": 0.5,
            "lambda": 5,
            "drawnRed": 36,
            "reportedRed": 36,
            "inferredRed": 40,
            "playerTrialScore": 0,
            "oppTrialScore": -4,
            "playerTotalScore": -550,
            "oppTotalScore": 74,
            "waitTime": 3073.6700821520426,
            "responseTime": 1642790897524,
            "catchQuestion": "How many <b class=\"r\">red<\/b> marbles did you actually draw (before any changes)? ",
            "catchKey": -1,
            "catchResponse": -1,
            "catchTime": 1642790835542,
            "trialTime": 0
        },
        {
            "exptPart": "trial",
            "trialNumber": 70,
            "roleCurrent": "receiver",
            "marblesSampled": 100,
            "probRed": 0.5,
            "lambda": 5,
            "drawnRed": 15,
            "reportedRed": 10,
            "inferredRed": 73,
            "playerTrialScore": -58,
            "oppTrialScore": 0,
            "playerTotalScore": -608,
            "oppTotalScore": 74,
            "waitTime": 5869.806698333095,
            "responseTime": 1642790907114,
            "catchQuestion": "How many <b class=\"r\">red<\/b> marbles did you actually draw (before any changes)? ",
            "catchKey": -1,
            "catchResponse": -1,
            "catchTime": 1642790907114,
            "trialTime": 0
        },
        {
            "exptPart": "trial",
            "trialNumber": 71,
            "roleCurrent": "sender",
            "marblesSampled": 100,
            "probRed": 0.5,
            "lambda": 5,
            "drawnRed": 37,
            "reportedRed": 37,
            "inferredRed": 41,
            "playerTrialScore": 0,
            "oppTrialScore": -4,
            "playerTotalScore": -608,
            "oppTotalScore": 70,
            "waitTime": 2674.0952372643314,
            "responseTime": 1642790915681,
            "catchQuestion": "How many <b class=\"r\">red<\/b> marbles did you actually draw (before any changes)? ",
            "catchKey": 37,
            "catchResponse": 36,
            "catchTime": 1642790915681,
            "trialTime": 0
        },
        {
            "exptPart": "trial",
            "trialNumber": 72,
            "roleCurrent": "receiver",
            "marblesSampled": 100,
            "probRed": 0.5,
            "lambda": 5,
            "drawnRed": 24,
            "reportedRed": 21,
            "inferredRed": 36,
            "playerTrialScore": -12,
            "oppTrialScore": 0,
            "playerTotalScore": -620,
            "oppTotalScore": 70,
            "waitTime": 5985.377412532085,
            "responseTime": 1642790931614,
            "catchQuestion": "How many <b class=\"r\">red<\/b> marbles did you actually draw (before any changes)? ",
            "catchKey": -1,
            "catchResponse": -1,
            "catchTime": 1642790915681,
            "trialTime": 0
        },
        {
            "exptPart": "trial",
            "trialNumber": 73,
            "roleCurrent": "sender",
            "marblesSampled": 100,
            "probRed": 0.5,
            "lambda": 5,
            "drawnRed": 44,
            "reportedRed": 44,
            "inferredRed": 51,
            "playerTrialScore": 0,
            "oppTrialScore": -7,
            "playerTotalScore": -620,
            "oppTotalScore": 63,
            "waitTime": 2670.57893560461,
            "responseTime": 1642790939566,
            "catchQuestion": "How many <b class=\"r\">red<\/b> marbles did you actually draw (before any changes)? ",
            "catchKey": -1,
            "catchResponse": -1,
            "catchTime": 1642790915681,
            "trialTime": 0
        },
        {
            "exptPart": "trial",
            "trialNumber": 74,
            "roleCurrent": "receiver",
            "marblesSampled": 100,
            "probRed": 0.5,
            "lambda": 5,
            "drawnRed": 45,
            "reportedRed": 41,
            "inferredRed": 35,
            "playerTrialScore": -10,
            "oppTrialScore": 10,
            "playerTotalScore": -630,
            "oppTotalScore": 73,
            "waitTime": 5424.928377841396,
            "responseTime": 1642790947699,
            "catchQuestion": "How many <b class=\"r\">red<\/b> marbles did you actually draw (before any changes)? ",
            "catchKey": -1,
            "catchResponse": -1,
            "catchTime": 1642790915681,
            "trialTime": 0
        },
        {
            "exptPart": "trial",
            "trialNumber": 75,
            "roleCurrent": "sender",
            "marblesSampled": 100,
            "probRed": 0.5,
            "lambda": 5,
            "drawnRed": 71,
            "reportedRed": 71,
            "inferredRed": 71,
            "playerTrialScore": 0,
            "oppTrialScore": 0,
            "playerTotalScore": -630,
            "oppTotalScore": 73,
            "waitTime": 2680.399934425129,
            "responseTime": 1642790957188,
            "catchQuestion": "How many <b class=\"r\">red<\/b> marbles did you actually draw (before any changes)? ",
            "catchKey": -1,
            "catchResponse": -1,
            "catchTime": 1642790957188,
            "trialTime": 0
        },
        {
            "exptPart": "trial",
            "trialNumber": 76,
            "roleCurrent": "receiver",
            "marblesSampled": 100,
            "probRed": 0.5,
            "lambda": 5,
            "drawnRed": 53,
            "reportedRed": 41,
            "inferredRed": 64,
            "playerTrialScore": -11,
            "oppTrialScore": 0,
            "playerTotalScore": -641,
            "oppTotalScore": 73,
            "waitTime": 5227.119948699074,
            "responseTime": 1642790968349,
            "catchQuestion": "How many <b class=\"r\">red<\/b> marbles did you actually draw (before any changes)? ",
            "catchKey": -1,
            "catchResponse": -1,
            "catchTime": 1642790957188,
            "trialTime": 0
        },
        {
            "exptPart": "trial",
            "trialNumber": 77,
            "roleCurrent": "sender",
            "marblesSampled": 100,
            "probRed": 0.5,
            "lambda": 5,
            "drawnRed": 21,
            "reportedRed": 21,
            "inferredRed": 27,
            "playerTrialScore": 0,
            "oppTrialScore": -6,
            "playerTotalScore": -641,
            "oppTotalScore": 67,
            "waitTime": 2413.139692665284,
            "responseTime": 1642790976147,
            "catchQuestion": "How many <b class=\"r\">red<\/b> marbles did you actually draw (before any changes)? ",
            "catchKey": -1,
            "catchResponse": -1,
            "catchTime": 1642790957188,
            "trialTime": 0
        },
        {
            "exptPart": "trial",
            "trialNumber": 78,
            "roleCurrent": "receiver",
            "marblesSampled": 100,
            "probRed": 0.5,
            "lambda": 5,
            "drawnRed": 37,
            "reportedRed": 35,
            "inferredRed": 67,
            "playerTrialScore": -30,
            "oppTrialScore": 0,
            "playerTotalScore": -671,
            "oppTotalScore": 67,
            "waitTime": 6707.277811797043,
            "responseTime": 1642790986582,
            "catchQuestion": "How many <b class=\"r\">red<\/b> marbles did you actually draw (before any changes)? ",
            "catchKey": -1,
            "catchResponse": -1,
            "catchTime": 1642790957188,
            "trialTime": 0
        },
        {
            "exptPart": "trial",
            "trialNumber": 79,
            "roleCurrent": "sender",
            "marblesSampled": 100,
            "probRed": 0.5,
            "lambda": 5,
            "drawnRed": 28,
            "reportedRed": 28,
            "inferredRed": 35,
            "playerTrialScore": 0,
            "oppTrialScore": -7,
            "playerTotalScore": -671,
            "oppTotalScore": 60,
            "waitTime": 2113.1143910338014,
            "responseTime": 1642790994217,
            "catchQuestion": "How many <b class=\"r\">red<\/b> marbles did you actually draw (before any changes)? ",
            "catchKey": -1,
            "catchResponse": -1,
            "catchTime": 1642790957188,
            "trialTime": 0
        },
        {
            "exptPart": "trial",
            "trialNumber": 80,
            "roleCurrent": "receiver",
            "marblesSampled": 100,
            "probRed": 0.5,
            "lambda": 5,
            "drawnRed": 16,
            "reportedRed": 9,
            "inferredRed": 85,
            "playerTrialScore": -69,
            "oppTrialScore": 0,
            "playerTotalScore": -740,
            "oppTotalScore": 60,
            "waitTime": 6795.959039825815,
            "responseTime": 1642791007250,
            "catchQuestion": "How many <b class=\"r\">red<\/b> marbles did you actually draw (before any changes)? ",
            "catchKey": -1,
            "catchResponse": -1,
            "catchTime": 1642791007250,
            "trialTime": 0
        },
        {
            "exptPart": "trial",
            "trialNumber": 81,
            "roleCurrent": "sender",
            "marblesSampled": 100,
            "probRed": 0.5,
            "lambda": 5,
            "drawnRed": 70,
            "reportedRed": 70,
            "inferredRed": 77,
            "playerTrialScore": 0,
            "oppTrialScore": -7,
            "playerTotalScore": -740,
            "oppTotalScore": 53,
            "waitTime": 2987.864855139249,
            "responseTime": 1642791017032,
            "catchQuestion": "How many <b class=\"r\">red<\/b> marbles did you actually draw (before any changes)? ",
            "catchKey": -1,
            "catchResponse": -1,
            "catchTime": 1642791007250,
            "trialTime": 0
        },
        {
            "exptPart": "trial",
            "trialNumber": 82,
            "roleCurrent": "receiver",
            "marblesSampled": 100,
            "probRed": 0.5,
            "lambda": 5,
            "drawnRed": 29,
            "reportedRed": 25,
            "inferredRed": 100,
            "playerTrialScore": -71,
            "oppTrialScore": 0,
            "playerTotalScore": -811,
            "oppTotalScore": 53,
            "waitTime": 5930.353124342204,
            "responseTime": 1642791026915,
            "catchQuestion": "How many <b class=\"r\">red<\/b> marbles did you actually draw (before any changes)? ",
            "catchKey": -1,
            "catchResponse": -1,
            "catchTime": 1642791007250,
            "trialTime": 0
        },
        {
            "exptPart": "trial",
            "trialNumber": 83,
            "roleCurrent": "sender",
            "marblesSampled": 100,
            "probRed": 0.5,
            "lambda": 5,
            "drawnRed": 44,
            "reportedRed": 44,
            "inferredRed": 50,
            "playerTrialScore": 0,
            "oppTrialScore": -6,
            "playerTotalScore": -811,
            "oppTotalScore": 47,
            "waitTime": 2573.096454475958,
            "responseTime": 1642791033682,
            "catchQuestion": "How many <b class=\"r\">red<\/b> marbles did you actually draw (before any changes)? ",
            "catchKey": -1,
            "catchResponse": -1,
            "catchTime": 1642791007250,
            "trialTime": 0
        },
        {
            "exptPart": "trial",
            "trialNumber": 84,
            "roleCurrent": "receiver",
            "marblesSampled": 100,
            "probRed": 0.5,
            "lambda": 5,
            "drawnRed": 64,
            "reportedRed": 57,
            "inferredRed": 60,
            "playerTrialScore": -4,
            "oppTrialScore": 4,
            "playerTotalScore": -815,
            "oppTotalScore": 51,
            "waitTime": 5737.0528020993825,
            "responseTime": 1642791044431,
            "catchQuestion": "How many <b class=\"r\">red<\/b> marbles did you actually draw (before any changes)? ",
            "catchKey": -1,
            "catchResponse": -1,
            "catchTime": 1642791007250,
            "trialTime": 0
        },
        {
            "exptPart": "trial",
            "trialNumber": 85,
            "roleCurrent": "sender",
            "marblesSampled": 100,
            "probRed": 0.5,
            "lambda": 5,
            "drawnRed": 28,
            "reportedRed": 28,
            "inferredRed": 31,
            "playerTrialScore": 0,
            "oppTrialScore": -3,
            "playerTotalScore": -815,
            "oppTotalScore": 48,
            "waitTime": 2376.684077101297,
            "responseTime": 1642791057116,
            "catchQuestion": "How many <b class=\"r\">red<\/b> marbles did you actually draw (before any changes)? ",
            "catchKey": 28,
            "catchResponse": 28,
            "catchTime": 1642791057116,
            "trialTime": 0
        },
        {
            "exptPart": "trial",
            "trialNumber": 86,
            "roleCurrent": "receiver",
            "marblesSampled": 100,
            "probRed": 0.5,
            "lambda": 5,
            "drawnRed": 49,
            "reportedRed": 44,
            "inferredRed": 50,
            "playerTrialScore": -1,
            "oppTrialScore": 0,
            "playerTotalScore": -816,
            "oppTotalScore": 48,
            "waitTime": 5273.068557898814,
            "responseTime": 1642791071748,
            "catchQuestion": "How many <b class=\"r\">red<\/b> marbles did you actually draw (before any changes)? ",
            "catchKey": -1,
            "catchResponse": -1,
            "catchTime": 1642791057116,
            "trialTime": 0
        },
        {
            "exptPart": "trial",
            "trialNumber": 87,
            "roleCurrent": "sender",
            "marblesSampled": 100,
            "probRed": 0.5,
            "lambda": 5,
            "drawnRed": 84,
            "reportedRed": 84,
            "inferredRed": 91,
            "playerTrialScore": 0,
            "oppTrialScore": -7,
            "playerTotalScore": -816,
            "oppTotalScore": 41,
            "waitTime": 3211.0260727486216,
            "responseTime": 1642791079285,
            "catchQuestion": "How many <b class=\"r\">red<\/b> marbles did you actually draw (before any changes)? ",
            "catchKey": -1,
            "catchResponse": -1,
            "catchTime": 1642791057116,
            "trialTime": 0
        },
        {
            "exptPart": "trial",
            "trialNumber": 88,
            "roleCurrent": "receiver",
            "marblesSampled": 100,
            "probRed": 0.5,
            "lambda": 5,
            "drawnRed": 63,
            "reportedRed": 60,
            "inferredRed": 30,
            "playerTrialScore": -33,
            "oppTrialScore": 33,
            "playerTotalScore": -849,
            "oppTotalScore": 74,
            "waitTime": 5237.886292308356,
            "responseTime": 1642791089433,
            "catchQuestion": "How many <b class=\"r\">red<\/b> marbles did you actually draw (before any changes)? ",
            "catchKey": -1,
            "catchResponse": -1,
            "catchTime": 1642791057116,
            "trialTime": 0
        },
        {
            "exptPart": "trial",
            "trialNumber": 89,
            "roleCurrent": "sender",
            "marblesSampled": 100,
            "probRed": 0.5,
            "lambda": 5,
            "drawnRed": 14,
            "reportedRed": 14,
            "inferredRed": 16,
            "playerTrialScore": 0,
            "oppTrialScore": -2,
            "playerTotalScore": -849,
            "oppTotalScore": 72,
            "waitTime": 2786.9220809381686,
            "responseTime": 1642791096697,
            "catchQuestion": "How many <b class=\"r\">red<\/b> marbles did you actually draw (before any changes)? ",
            "catchKey": -1,
            "catchResponse": -1,
            "catchTime": 1642791057116,
            "trialTime": 0
        },
        {
            "exptPart": "trial",
            "trialNumber": 90,
            "roleCurrent": "receiver",
            "marblesSampled": 100,
            "probRed": 0.5,
            "lambda": 5,
            "drawnRed": 80,
            "reportedRed": 72,
            "inferredRed": 67,
            "playerTrialScore": -13,
            "oppTrialScore": 13,
            "playerTotalScore": -862,
            "oppTotalScore": 85,
            "waitTime": 5330.906108195639,
            "responseTime": 1642791106648,
            "catchQuestion": "How many <b class=\"r\">red<\/b> marbles did you actually draw (before any changes)? ",
            "catchKey": -1,
            "catchResponse": -1,
            "catchTime": 1642791106649,
            "trialTime": 0
        },
        {
            "exptPart": "trial",
            "trialNumber": 91,
            "roleCurrent": "sender",
            "marblesSampled": 100,
            "probRed": 0.5,
            "lambda": 5,
            "drawnRed": 14,
            "reportedRed": 14,
            "inferredRed": 19,
            "playerTrialScore": 0,
            "oppTrialScore": -5,
            "playerTotalScore": -862,
            "oppTotalScore": 80,
            "waitTime": 2670.856585847593,
            "responseTime": 1642791114766,
            "catchQuestion": "How many <b class=\"r\">red<\/b> marbles did you actually draw (before any changes)? ",
            "catchKey": -1,
            "catchResponse": -1,
            "catchTime": 1642791106649,
            "trialTime": 0
        },
        {
            "exptPart": "trial",
            "trialNumber": 92,
            "roleCurrent": "receiver",
            "marblesSampled": 100,
            "probRed": 0.5,
            "lambda": 5,
            "drawnRed": 55,
            "reportedRed": 53,
            "inferredRed": 42,
            "playerTrialScore": -13,
            "oppTrialScore": 13,
            "playerTotalScore": -875,
            "oppTotalScore": 93,
            "waitTime": 6261.158026475974,
            "responseTime": 1642791125583,
            "catchQuestion": "How many <b class=\"r\">red<\/b> marbles did you actually draw (before any changes)? ",
            "catchKey": -1,
            "catchResponse": -1,
            "catchTime": 1642791106649,
            "trialTime": 0
        },
        {
            "exptPart": "trial",
            "trialNumber": 93,
            "roleCurrent": "sender",
            "marblesSampled": 100,
            "probRed": 0.5,
            "lambda": 5,
            "drawnRed": 46,
            "reportedRed": 47,
            "inferredRed": 56,
            "playerTrialScore": 0,
            "oppTrialScore": -10,
            "playerTotalScore": -875,
            "oppTotalScore": 83,
            "waitTime": 3010.9253422552974,
            "responseTime": 1642791136650,
            "catchQuestion": "How many <b class=\"r\">red<\/b> marbles did you actually draw (before any changes)? ",
            "catchKey": -1,
            "catchResponse": -1,
            "catchTime": 1642791106649,
            "trialTime": 0
        },
        {
            "exptPart": "trial",
            "trialNumber": 94,
            "roleCurrent": "receiver",
            "marblesSampled": 100,
            "probRed": 0.5,
            "lambda": 5,
            "drawnRed": 60,
            "reportedRed": 53,
            "inferredRed": 32,
            "playerTrialScore": -28,
            "oppTrialScore": 28,
            "playerTotalScore": -903,
            "oppTotalScore": 111,
            "waitTime": 5345.137334095807,
            "responseTime": 1642791146000,
            "catchQuestion": "How many <b class=\"r\">red<\/b> marbles did your opponent report drawing? ",
            "catchKey": 53,
            "catchResponse": 52,
            "catchTime": 1642791146000,
            "trialTime": 0
        },
        {
            "exptPart": "trial",
            "trialNumber": 95,
            "roleCurrent": "sender",
            "marblesSampled": 100,
            "probRed": 0.5,
            "lambda": 5,
            "drawnRed": 21,
            "reportedRed": 22,
            "inferredRed": 27,
            "playerTrialScore": 0,
            "oppTrialScore": -6,
            "playerTotalScore": -903,
            "oppTotalScore": 105,
            "waitTime": 2281.942993925024,
            "responseTime": 1642791163616,
            "catchQuestion": "How many <b class=\"r\">red<\/b> marbles did your opponent report drawing? ",
            "catchKey": -1,
            "catchResponse": -1,
            "catchTime": 1642791163616,
            "trialTime": 0
        },
        {
            "exptPart": "trial",
            "trialNumber": 96,
            "roleCurrent": "receiver",
            "marblesSampled": 100,
            "probRed": 0.5,
            "lambda": 5,
            "drawnRed": 75,
            "reportedRed": 74,
            "inferredRed": 75,
            "playerTrialScore": 0,
            "oppTrialScore": 0,
            "playerTotalScore": -903,
            "oppTotalScore": 105,
            "waitTime": 5541.622096216452,
            "responseTime": 1642791173531,
            "catchQuestion": "How many <b class=\"r\">red<\/b> marbles did your opponent report drawing? ",
            "catchKey": -1,
            "catchResponse": -1,
            "catchTime": 1642791163616,
            "trialTime": 0
        },
        {
            "exptPart": "trial",
            "trialNumber": 97,
            "roleCurrent": "sender",
            "marblesSampled": 100,
            "probRed": 0.5,
            "lambda": 5,
            "drawnRed": 79,
            "reportedRed": 78,
            "inferredRed": 83,
            "playerTrialScore": 0,
            "oppTrialScore": -4,
            "playerTotalScore": -903,
            "oppTotalScore": 101,
            "waitTime": 2261.3739319400547,
            "responseTime": 1642791183867,
            "catchQuestion": "How many <b class=\"r\">red<\/b> marbles did you actually draw (before any changes)? ",
            "catchKey": 79,
            "catchResponse": 79,
            "catchTime": 1642791183867,
            "trialTime": 0
        },
        {
            "exptPart": "trial",
            "trialNumber": 98,
            "roleCurrent": "receiver",
            "marblesSampled": 100,
            "probRed": 0.5,
            "lambda": 5,
            "drawnRed": 48,
            "reportedRed": 42,
            "inferredRed": 85,
            "playerTrialScore": -37,
            "oppTrialScore": 0,
            "playerTotalScore": -940,
            "oppTotalScore": 101,
            "waitTime": 6252.281128476929,
            "responseTime": 1642791199465,
            "catchQuestion": "How many <b class=\"r\">red<\/b> marbles did you actually draw (before any changes)? ",
            "catchKey": -1,
            "catchResponse": -1,
            "catchTime": 1642791183867,
            "trialTime": 0
        },
        {
            "exptPart": "trial",
            "trialNumber": 99,
            "roleCurrent": "sender",
            "marblesSampled": 100,
            "probRed": 0.5,
            "lambda": 5,
            "drawnRed": 26,
            "reportedRed": 26,
            "inferredRed": 31,
            "playerTrialScore": 0,
            "oppTrialScore": -5,
            "playerTotalScore": -940,
            "oppTotalScore": 96,
            "waitTime": 2353.603100353609,
            "responseTime": 1642791207650,
            "catchQuestion": "How many <b class=\"r\">red<\/b> marbles did you actually draw (before any changes)? ",
            "catchKey": -1,
            "catchResponse": -1,
            "catchTime": 1642791183867,
            "trialTime": 0
        },
        {
            "exptPart": "trial",
            "trialNumber": 100,
            "roleCurrent": "receiver",
            "marblesSampled": 100,
            "probRed": 0.5,
            "lambda": 5,
            "drawnRed": 36,
            "reportedRed": 26,
            "inferredRed": 99,
            "playerTrialScore": -63,
            "oppTrialScore": 0,
            "playerTotalScore": -1003,
            "oppTotalScore": 96,
            "waitTime": 5932.7123952425145,
            "responseTime": 1642791218418,
            "catchQuestion": "How many <b class=\"r\">red<\/b> marbles did you actually draw (before any changes)? ",
            "catchKey": -1,
            "catchResponse": -1,
            "catchTime": 1642791218418,
            "trialTime": 0
        }
    ]
}