{
    "client": {
        "type": "sona",
        "experiment_id": 2228,
        "credit_token": "b315147ae43241ea9c65086cb510cfb7",
        "survey_code": "33756",
        "sid": "sona-33756",
        "window": {
            "width": 1536,
            "height": 754
        },
        "screen": {
            "width": 1536,
            "height": 864
        },
        "userAgent": "Mozilla\/5.0 (Windows NT 10.0; Win64; x64) AppleWebKit\/537.36 (KHTML, like Gecko) Chrome\/97.0.4692.71 Safari\/537.36",
        "score": 0,
        "bonus": 0
    },
    "expt": {
        "saveURL": "submit.simple.php",
        "trials": 100,
        "practiceTrials": 2,
        "marblesSampled": 100,
        "probRed": 0.5,
        "lambdaAI": 5,
        "roleFirst": "sender",
        "roles": [
            "sender",
            "receiver"
        ],
        "cost": "unif",
        "goal": "over",
        "catchTrials": [
            0,
            77,
            10,
            40,
            64,
            22,
            86,
            74,
            27,
            70
        ],
        "scoreTotal": {
            "player": 118,
            "opp": -952
        },
        "sona": {
            "experiment_id": 2228,
            "credit_token": "b315147ae43241ea9c65086cb510cfb7"
        },
        "pilot": false,
        "debug": false
    },
    "trials": [
        {
            "exptPart": "practice",
            "trialNumber": 1,
            "roleCurrent": "sender",
            "marblesSampled": 100,
            "probRed": 0.5,
            "lambda": 5,
            "drawnRed": 21,
            "reportedRed": 58,
            "inferredRed": 58,
            "playerTrialScore": 37,
            "oppTrialScore": -37,
            "playerTotalScore": 37,
            "oppTotalScore": -37,
            "waitTime": 3119.6876120054667,
            "responseTime": 1642388513605,
            "catchQuestion": "How many <b class=\"r\">red<\/b> marbles did you actually draw (before any changes)? ",
            "catchKey": 21,
            "catchResponse": 21,
            "catchTime": 1642388513605,
            "trialTime": 0
        },
        {
            "exptPart": "practice",
            "trialNumber": 2,
            "roleCurrent": "receiver",
            "marblesSampled": 100,
            "probRed": 0.5,
            "lambda": 5,
            "drawnRed": 75,
            "reportedRed": 75,
            "inferredRed": 35,
            "playerTrialScore": -40,
            "oppTrialScore": 0,
            "playerTotalScore": -3,
            "oppTotalScore": -37,
            "waitTime": 5523.301371494451,
            "responseTime": 1642388548007,
            "catchQuestion": "How many <b class=\"r\">red<\/b> marbles did your opponent report drawing? ",
            "catchKey": 75,
            "catchResponse": 75,
            "catchTime": 1642388548007,
            "trialTime": 0
        },
        {
            "exptPart": "trial",
            "trialNumber": 1,
            "roleCurrent": "sender",
            "marblesSampled": 100,
            "probRed": 0.5,
            "lambda": 5,
            "drawnRed": 64,
            "reportedRed": 91,
            "inferredRed": 89,
            "playerTrialScore": 25,
            "oppTrialScore": -25,
            "playerTotalScore": 25,
            "oppTotalScore": -25,
            "waitTime": 2637.2933190212552,
            "responseTime": 1642388598333,
            "catchQuestion": "How many <b class=\"r\">red<\/b> marbles did you actually draw (before any changes)? ",
            "catchKey": 64,
            "catchResponse": 64,
            "catchTime": 1642388598333,
            "trialTime": 0
        },
        {
            "exptPart": "trial",
            "trialNumber": 2,
            "roleCurrent": "receiver",
            "marblesSampled": 100,
            "probRed": 0.5,
            "lambda": 5,
            "drawnRed": 46,
            "reportedRed": 52,
            "inferredRed": 45,
            "playerTrialScore": -1,
            "oppTrialScore": 0,
            "playerTotalScore": 24,
            "oppTotalScore": -25,
            "waitTime": 5288.717073399452,
            "responseTime": 1642388616288,
            "catchQuestion": "How many <b class=\"r\">red<\/b> marbles did you actually draw (before any changes)? ",
            "catchKey": -1,
            "catchResponse": -1,
            "catchTime": 1642388598333,
            "trialTime": 0
        },
        {
            "exptPart": "trial",
            "trialNumber": 3,
            "roleCurrent": "sender",
            "marblesSampled": 100,
            "probRed": 0.5,
            "lambda": 5,
            "drawnRed": 66,
            "reportedRed": 90,
            "inferredRed": 83,
            "playerTrialScore": 17,
            "oppTrialScore": -17,
            "playerTotalScore": 41,
            "oppTotalScore": -42,
            "waitTime": 2467.623020137546,
            "responseTime": 1642388639797,
            "catchQuestion": "How many <b class=\"r\">red<\/b> marbles did you actually draw (before any changes)? ",
            "catchKey": -1,
            "catchResponse": -1,
            "catchTime": 1642388598333,
            "trialTime": 0
        },
        {
            "exptPart": "trial",
            "trialNumber": 4,
            "roleCurrent": "receiver",
            "marblesSampled": 100,
            "probRed": 0.5,
            "lambda": 5,
            "drawnRed": 21,
            "reportedRed": 26,
            "inferredRed": 26,
            "playerTrialScore": -5,
            "oppTrialScore": 5,
            "playerTotalScore": 36,
            "oppTotalScore": -37,
            "waitTime": 6418.120030947521,
            "responseTime": 1642388649827,
            "catchQuestion": "How many <b class=\"r\">red<\/b> marbles did you actually draw (before any changes)? ",
            "catchKey": -1,
            "catchResponse": -1,
            "catchTime": 1642388598333,
            "trialTime": 0
        },
        {
            "exptPart": "trial",
            "trialNumber": 5,
            "roleCurrent": "sender",
            "marblesSampled": 100,
            "probRed": 0.5,
            "lambda": 5,
            "drawnRed": 58,
            "reportedRed": 70,
            "inferredRed": 67,
            "playerTrialScore": 9,
            "oppTrialScore": -9,
            "playerTotalScore": 45,
            "oppTotalScore": -46,
            "waitTime": 2480.525077715897,
            "responseTime": 1642388669021,
            "catchQuestion": "How many <b class=\"r\">red<\/b> marbles did you actually draw (before any changes)? ",
            "catchKey": -1,
            "catchResponse": -1,
            "catchTime": 1642388669021,
            "trialTime": 0
        },
        {
            "exptPart": "trial",
            "trialNumber": 6,
            "roleCurrent": "receiver",
            "marblesSampled": 100,
            "probRed": 0.5,
            "lambda": 5,
            "drawnRed": 57,
            "reportedRed": 66,
            "inferredRed": 55,
            "playerTrialScore": -2,
            "oppTrialScore": 0,
            "playerTotalScore": 43,
            "oppTotalScore": -46,
            "waitTime": 6437.162226788463,
            "responseTime": 1642388687713,
            "catchQuestion": "How many <b class=\"r\">red<\/b> marbles did you actually draw (before any changes)? ",
            "catchKey": -1,
            "catchResponse": -1,
            "catchTime": 1642388669021,
            "trialTime": 0
        },
        {
            "exptPart": "trial",
            "trialNumber": 7,
            "roleCurrent": "sender",
            "marblesSampled": 100,
            "probRed": 0.5,
            "lambda": 5,
            "drawnRed": 20,
            "reportedRed": 85,
            "inferredRed": 83,
            "playerTrialScore": 63,
            "oppTrialScore": -63,
            "playerTotalScore": 106,
            "oppTotalScore": -109,
            "waitTime": 2176.972511317556,
            "responseTime": 1642388744696,
            "catchQuestion": "How many <b class=\"r\">red<\/b> marbles did you actually draw (before any changes)? ",
            "catchKey": -1,
            "catchResponse": -1,
            "catchTime": 1642388669021,
            "trialTime": 0
        },
        {
            "exptPart": "trial",
            "trialNumber": 8,
            "roleCurrent": "receiver",
            "marblesSampled": 100,
            "probRed": 0.5,
            "lambda": 5,
            "drawnRed": 60,
            "reportedRed": 66,
            "inferredRed": 50,
            "playerTrialScore": -10,
            "oppTrialScore": 0,
            "playerTotalScore": 96,
            "oppTotalScore": -109,
            "waitTime": 5598.975025650433,
            "responseTime": 1642388758698,
            "catchQuestion": "How many <b class=\"r\">red<\/b> marbles did you actually draw (before any changes)? ",
            "catchKey": -1,
            "catchResponse": -1,
            "catchTime": 1642388669021,
            "trialTime": 0
        },
        {
            "exptPart": "trial",
            "trialNumber": 9,
            "roleCurrent": "sender",
            "marblesSampled": 100,
            "probRed": 0.5,
            "lambda": 5,
            "drawnRed": 44,
            "reportedRed": 50,
            "inferredRed": 45,
            "playerTrialScore": 1,
            "oppTrialScore": -1,
            "playerTotalScore": 97,
            "oppTotalScore": -110,
            "waitTime": 2321.0616789649885,
            "responseTime": 1642388772651,
            "catchQuestion": "How many <b class=\"r\">red<\/b> marbles did you actually draw (before any changes)? ",
            "catchKey": -1,
            "catchResponse": -1,
            "catchTime": 1642388669021,
            "trialTime": 0
        },
        {
            "exptPart": "trial",
            "trialNumber": 10,
            "roleCurrent": "receiver",
            "marblesSampled": 100,
            "probRed": 0.5,
            "lambda": 5,
            "drawnRed": 99,
            "reportedRed": 100,
            "inferredRed": 40,
            "playerTrialScore": -59,
            "oppTrialScore": 0,
            "playerTotalScore": 38,
            "oppTotalScore": -110,
            "waitTime": 7268.36175249395,
            "responseTime": 1642388786784,
            "catchQuestion": "How many <b class=\"r\">red<\/b> marbles did you actually draw (before any changes)? ",
            "catchKey": -1,
            "catchResponse": -1,
            "catchTime": 1642388786784,
            "trialTime": 0
        },
        {
            "exptPart": "trial",
            "trialNumber": 11,
            "roleCurrent": "sender",
            "marblesSampled": 100,
            "probRed": 0.5,
            "lambda": 5,
            "drawnRed": 42,
            "reportedRed": 70,
            "inferredRed": 65,
            "playerTrialScore": 23,
            "oppTrialScore": -23,
            "playerTotalScore": 61,
            "oppTotalScore": -133,
            "waitTime": 2749.040238650824,
            "responseTime": 1642388814100,
            "catchQuestion": "How many <b class=\"r\">red<\/b> marbles did you actually draw (before any changes)? ",
            "catchKey": 42,
            "catchResponse": 42,
            "catchTime": 1642388814100,
            "trialTime": 0
        },
        {
            "exptPart": "trial",
            "trialNumber": 12,
            "roleCurrent": "receiver",
            "marblesSampled": 100,
            "probRed": 0.5,
            "lambda": 5,
            "drawnRed": 43,
            "reportedRed": 48,
            "inferredRed": 30,
            "playerTrialScore": -13,
            "oppTrialScore": 0,
            "playerTotalScore": 48,
            "oppTotalScore": -133,
            "waitTime": 5160.538701177764,
            "responseTime": 1642388830332,
            "catchQuestion": "How many <b class=\"r\">red<\/b> marbles did you actually draw (before any changes)? ",
            "catchKey": -1,
            "catchResponse": -1,
            "catchTime": 1642388814100,
            "trialTime": 0
        },
        {
            "exptPart": "trial",
            "trialNumber": 13,
            "roleCurrent": "sender",
            "marblesSampled": 100,
            "probRed": 0.5,
            "lambda": 5,
            "drawnRed": 40,
            "reportedRed": 60,
            "inferredRed": 53,
            "playerTrialScore": 13,
            "oppTrialScore": -13,
            "playerTotalScore": 61,
            "oppTotalScore": -146,
            "waitTime": 2254.253631379469,
            "responseTime": 1642388853212,
            "catchQuestion": "How many <b class=\"r\">red<\/b> marbles did you actually draw (before any changes)? ",
            "catchKey": -1,
            "catchResponse": -1,
            "catchTime": 1642388814100,
            "trialTime": 0
        },
        {
            "exptPart": "trial",
            "trialNumber": 14,
            "roleCurrent": "receiver",
            "marblesSampled": 100,
            "probRed": 0.5,
            "lambda": 5,
            "drawnRed": 90,
            "reportedRed": 91,
            "inferredRed": 68,
            "playerTrialScore": -22,
            "oppTrialScore": 0,
            "playerTotalScore": 39,
            "oppTotalScore": -146,
            "waitTime": 6631.123917379611,
            "responseTime": 1642388863808,
            "catchQuestion": "How many <b class=\"r\">red<\/b> marbles did you actually draw (before any changes)? ",
            "catchKey": -1,
            "catchResponse": -1,
            "catchTime": 1642388814100,
            "trialTime": 0
        },
        {
            "exptPart": "trial",
            "trialNumber": 15,
            "roleCurrent": "sender",
            "marblesSampled": 100,
            "probRed": 0.5,
            "lambda": 5,
            "drawnRed": 27,
            "reportedRed": 12,
            "inferredRed": 3,
            "playerTrialScore": 0,
            "oppTrialScore": -24,
            "playerTotalScore": 39,
            "oppTotalScore": -170,
            "waitTime": 2238.3412574264066,
            "responseTime": 1642388882566,
            "catchQuestion": "How many <b class=\"r\">red<\/b> marbles did you actually draw (before any changes)? ",
            "catchKey": -1,
            "catchResponse": -1,
            "catchTime": 1642388882566,
            "trialTime": 0
        },
        {
            "exptPart": "trial",
            "trialNumber": 16,
            "roleCurrent": "receiver",
            "marblesSampled": 100,
            "probRed": 0.5,
            "lambda": 5,
            "drawnRed": 55,
            "reportedRed": 56,
            "inferredRed": 50,
            "playerTrialScore": -5,
            "oppTrialScore": 0,
            "playerTotalScore": 34,
            "oppTotalScore": -170,
            "waitTime": 7497.7011680142905,
            "responseTime": 1642388899073,
            "catchQuestion": "How many <b class=\"r\">red<\/b> marbles did you actually draw (before any changes)? ",
            "catchKey": -1,
            "catchResponse": -1,
            "catchTime": 1642388882566,
            "trialTime": 0
        },
        {
            "exptPart": "trial",
            "trialNumber": 17,
            "roleCurrent": "sender",
            "marblesSampled": 100,
            "probRed": 0.5,
            "lambda": 5,
            "drawnRed": 62,
            "reportedRed": 66,
            "inferredRed": 64,
            "playerTrialScore": 2,
            "oppTrialScore": -2,
            "playerTotalScore": 36,
            "oppTotalScore": -172,
            "waitTime": 2253.6370282509833,
            "responseTime": 1642388913569,
            "catchQuestion": "How many <b class=\"r\">red<\/b> marbles did you actually draw (before any changes)? ",
            "catchKey": -1,
            "catchResponse": -1,
            "catchTime": 1642388882566,
            "trialTime": 0
        },
        {
            "exptPart": "trial",
            "trialNumber": 18,
            "roleCurrent": "receiver",
            "marblesSampled": 100,
            "probRed": 0.5,
            "lambda": 5,
            "drawnRed": 62,
            "reportedRed": 67,
            "inferredRed": 67,
            "playerTrialScore": -5,
            "oppTrialScore": 5,
            "playerTotalScore": 31,
            "oppTotalScore": -167,
            "waitTime": 7003.551388121692,
            "responseTime": 1642388934649,
            "catchQuestion": "How many <b class=\"r\">red<\/b> marbles did you actually draw (before any changes)? ",
            "catchKey": -1,
            "catchResponse": -1,
            "catchTime": 1642388882566,
            "trialTime": 0
        },
        {
            "exptPart": "trial",
            "trialNumber": 19,
            "roleCurrent": "sender",
            "marblesSampled": 100,
            "probRed": 0.5,
            "lambda": 5,
            "drawnRed": 40,
            "reportedRed": 73,
            "inferredRed": 68,
            "playerTrialScore": 28,
            "oppTrialScore": -28,
            "playerTotalScore": 59,
            "oppTotalScore": -195,
            "waitTime": 2941.0076894373387,
            "responseTime": 1642388964222,
            "catchQuestion": "How many <b class=\"r\">red<\/b> marbles did you actually draw (before any changes)? ",
            "catchKey": -1,
            "catchResponse": -1,
            "catchTime": 1642388882566,
            "trialTime": 0
        },
        {
            "exptPart": "trial",
            "trialNumber": 20,
            "roleCurrent": "receiver",
            "marblesSampled": 100,
            "probRed": 0.5,
            "lambda": 5,
            "drawnRed": 86,
            "reportedRed": 88,
            "inferredRed": 46,
            "playerTrialScore": -40,
            "oppTrialScore": 0,
            "playerTotalScore": 19,
            "oppTotalScore": -195,
            "waitTime": 5245.095043571505,
            "responseTime": 1642388975846,
            "catchQuestion": "How many <b class=\"r\">red<\/b> marbles did you actually draw (before any changes)? ",
            "catchKey": -1,
            "catchResponse": -1,
            "catchTime": 1642388975846,
            "trialTime": 0
        },
        {
            "exptPart": "trial",
            "trialNumber": 21,
            "roleCurrent": "sender",
            "marblesSampled": 100,
            "probRed": 0.5,
            "lambda": 5,
            "drawnRed": 81,
            "reportedRed": 90,
            "inferredRed": 86,
            "playerTrialScore": 5,
            "oppTrialScore": -5,
            "playerTotalScore": 24,
            "oppTotalScore": -200,
            "waitTime": 2346.0496206019834,
            "responseTime": 1642389004378,
            "catchQuestion": "How many <b class=\"r\">red<\/b> marbles did you actually draw (before any changes)? ",
            "catchKey": -1,
            "catchResponse": -1,
            "catchTime": 1642388975846,
            "trialTime": 0
        },
        {
            "exptPart": "trial",
            "trialNumber": 22,
            "roleCurrent": "receiver",
            "marblesSampled": 100,
            "probRed": 0.5,
            "lambda": 5,
            "drawnRed": 69,
            "reportedRed": 77,
            "inferredRed": 45,
            "playerTrialScore": -24,
            "oppTrialScore": 0,
            "playerTotalScore": 0,
            "oppTotalScore": -200,
            "waitTime": 5911.4858605918635,
            "responseTime": 1642389014880,
            "catchQuestion": "How many <b class=\"r\">red<\/b> marbles did you actually draw (before any changes)? ",
            "catchKey": -1,
            "catchResponse": -1,
            "catchTime": 1642388975846,
            "trialTime": 0
        },
        {
            "exptPart": "trial",
            "trialNumber": 23,
            "roleCurrent": "sender",
            "marblesSampled": 100,
            "probRed": 0.5,
            "lambda": 5,
            "drawnRed": 53,
            "reportedRed": 75,
            "inferredRed": 71,
            "playerTrialScore": 18,
            "oppTrialScore": -18,
            "playerTotalScore": 18,
            "oppTotalScore": -218,
            "waitTime": 3057.115328992657,
            "responseTime": 1642389038298,
            "catchQuestion": "How many <b class=\"r\">red<\/b> marbles did you actually draw (before any changes)? ",
            "catchKey": 53,
            "catchResponse": 53,
            "catchTime": 1642389038298,
            "trialTime": 0
        },
        {
            "exptPart": "trial",
            "trialNumber": 24,
            "roleCurrent": "receiver",
            "marblesSampled": 100,
            "probRed": 0.5,
            "lambda": 5,
            "drawnRed": 71,
            "reportedRed": 78,
            "inferredRed": 67,
            "playerTrialScore": -4,
            "oppTrialScore": 0,
            "playerTotalScore": 14,
            "oppTotalScore": -218,
            "waitTime": 5611.855187227193,
            "responseTime": 1642389053054,
            "catchQuestion": "How many <b class=\"r\">red<\/b> marbles did you actually draw (before any changes)? ",
            "catchKey": -1,
            "catchResponse": -1,
            "catchTime": 1642389038298,
            "trialTime": 0
        },
        {
            "exptPart": "trial",
            "trialNumber": 25,
            "roleCurrent": "sender",
            "marblesSampled": 100,
            "probRed": 0.5,
            "lambda": 5,
            "drawnRed": 47,
            "reportedRed": 68,
            "inferredRed": 64,
            "playerTrialScore": 17,
            "oppTrialScore": -17,
            "playerTotalScore": 31,
            "oppTotalScore": -235,
            "waitTime": 3019.155264214798,
            "responseTime": 1642389074080,
            "catchQuestion": "How many <b class=\"r\">red<\/b> marbles did you actually draw (before any changes)? ",
            "catchKey": -1,
            "catchResponse": -1,
            "catchTime": 1642389074080,
            "trialTime": 0
        },
        {
            "exptPart": "trial",
            "trialNumber": 26,
            "roleCurrent": "receiver",
            "marblesSampled": 100,
            "probRed": 0.5,
            "lambda": 5,
            "drawnRed": 40,
            "reportedRed": 45,
            "inferredRed": 35,
            "playerTrialScore": -5,
            "oppTrialScore": 0,
            "playerTotalScore": 26,
            "oppTotalScore": -235,
            "waitTime": 5601.796246692145,
            "responseTime": 1642389083994,
            "catchQuestion": "How many <b class=\"r\">red<\/b> marbles did you actually draw (before any changes)? ",
            "catchKey": -1,
            "catchResponse": -1,
            "catchTime": 1642389074080,
            "trialTime": 0
        },
        {
            "exptPart": "trial",
            "trialNumber": 27,
            "roleCurrent": "sender",
            "marblesSampled": 100,
            "probRed": 0.5,
            "lambda": 5,
            "drawnRed": 39,
            "reportedRed": 75,
            "inferredRed": 73,
            "playerTrialScore": 34,
            "oppTrialScore": -34,
            "playerTotalScore": 60,
            "oppTotalScore": -269,
            "waitTime": 2094.259152592293,
            "responseTime": 1642389115526,
            "catchQuestion": "How many <b class=\"r\">red<\/b> marbles did you actually draw (before any changes)? ",
            "catchKey": -1,
            "catchResponse": -1,
            "catchTime": 1642389074080,
            "trialTime": 0
        },
        {
            "exptPart": "trial",
            "trialNumber": 28,
            "roleCurrent": "receiver",
            "marblesSampled": 100,
            "probRed": 0.5,
            "lambda": 5,
            "drawnRed": 81,
            "reportedRed": 86,
            "inferredRed": 66,
            "playerTrialScore": -15,
            "oppTrialScore": 0,
            "playerTotalScore": 45,
            "oppTotalScore": -269,
            "waitTime": 6845.865473372245,
            "responseTime": 1642389125618,
            "catchQuestion": "How many <b class=\"r\">red<\/b> marbles did your opponent report drawing? ",
            "catchKey": 86,
            "catchResponse": 86,
            "catchTime": 1642389125618,
            "trialTime": 0
        },
        {
            "exptPart": "trial",
            "trialNumber": 29,
            "roleCurrent": "sender",
            "marblesSampled": 100,
            "probRed": 0.5,
            "lambda": 5,
            "drawnRed": 17,
            "reportedRed": 60,
            "inferredRed": 53,
            "playerTrialScore": 36,
            "oppTrialScore": -36,
            "playerTotalScore": 81,
            "oppTotalScore": -305,
            "waitTime": 2854.5581750478023,
            "responseTime": 1642389163516,
            "catchQuestion": "How many <b class=\"r\">red<\/b> marbles did your opponent report drawing? ",
            "catchKey": -1,
            "catchResponse": -1,
            "catchTime": 1642389125618,
            "trialTime": 0
        },
        {
            "exptPart": "trial",
            "trialNumber": 30,
            "roleCurrent": "receiver",
            "marblesSampled": 100,
            "probRed": 0.5,
            "lambda": 5,
            "drawnRed": 42,
            "reportedRed": 50,
            "inferredRed": 35,
            "playerTrialScore": -7,
            "oppTrialScore": 0,
            "playerTotalScore": 74,
            "oppTotalScore": -305,
            "waitTime": 5368.233431438483,
            "responseTime": 1642389172764,
            "catchQuestion": "How many <b class=\"r\">red<\/b> marbles did your opponent report drawing? ",
            "catchKey": -1,
            "catchResponse": -1,
            "catchTime": 1642389172764,
            "trialTime": 0
        },
        {
            "exptPart": "trial",
            "trialNumber": 31,
            "roleCurrent": "sender",
            "marblesSampled": 100,
            "probRed": 0.5,
            "lambda": 5,
            "drawnRed": 47,
            "reportedRed": 64,
            "inferredRed": 60,
            "playerTrialScore": 13,
            "oppTrialScore": -13,
            "playerTotalScore": 87,
            "oppTotalScore": -318,
            "waitTime": 2865.0638747131816,
            "responseTime": 1642389193924,
            "catchQuestion": "How many <b class=\"r\">red<\/b> marbles did your opponent report drawing? ",
            "catchKey": -1,
            "catchResponse": -1,
            "catchTime": 1642389172764,
            "trialTime": 0
        },
        {
            "exptPart": "trial",
            "trialNumber": 32,
            "roleCurrent": "receiver",
            "marblesSampled": 100,
            "probRed": 0.5,
            "lambda": 5,
            "drawnRed": 35,
            "reportedRed": 44,
            "inferredRed": 25,
            "playerTrialScore": -10,
            "oppTrialScore": 0,
            "playerTotalScore": 77,
            "oppTotalScore": -318,
            "waitTime": 6104.11276497859,
            "responseTime": 1642389208000,
            "catchQuestion": "How many <b class=\"r\">red<\/b> marbles did your opponent report drawing? ",
            "catchKey": -1,
            "catchResponse": -1,
            "catchTime": 1642389172764,
            "trialTime": 0
        },
        {
            "exptPart": "trial",
            "trialNumber": 33,
            "roleCurrent": "sender",
            "marblesSampled": 100,
            "probRed": 0.5,
            "lambda": 5,
            "drawnRed": 9,
            "reportedRed": 70,
            "inferredRed": 67,
            "playerTrialScore": 58,
            "oppTrialScore": -58,
            "playerTotalScore": 135,
            "oppTotalScore": -376,
            "waitTime": 2180.4279959346773,
            "responseTime": 1642389246414,
            "catchQuestion": "How many <b class=\"r\">red<\/b> marbles did your opponent report drawing? ",
            "catchKey": -1,
            "catchResponse": -1,
            "catchTime": 1642389172764,
            "trialTime": 0
        },
        {
            "exptPart": "trial",
            "trialNumber": 34,
            "roleCurrent": "receiver",
            "marblesSampled": 100,
            "probRed": 0.5,
            "lambda": 5,
            "drawnRed": 31,
            "reportedRed": 39,
            "inferredRed": 26,
            "playerTrialScore": -5,
            "oppTrialScore": 0,
            "playerTotalScore": 130,
            "oppTotalScore": -376,
            "waitTime": 5580.81844954038,
            "responseTime": 1642389257101,
            "catchQuestion": "How many <b class=\"r\">red<\/b> marbles did your opponent report drawing? ",
            "catchKey": -1,
            "catchResponse": -1,
            "catchTime": 1642389172764,
            "trialTime": 0
        },
        {
            "exptPart": "trial",
            "trialNumber": 35,
            "roleCurrent": "sender",
            "marblesSampled": 100,
            "probRed": 0.5,
            "lambda": 5,
            "drawnRed": 39,
            "reportedRed": 82,
            "inferredRed": 79,
            "playerTrialScore": 40,
            "oppTrialScore": -40,
            "playerTotalScore": 170,
            "oppTotalScore": -416,
            "waitTime": 2351.247858424018,
            "responseTime": 1642389285896,
            "catchQuestion": "How many <b class=\"r\">red<\/b> marbles did your opponent report drawing? ",
            "catchKey": -1,
            "catchResponse": -1,
            "catchTime": 1642389285896,
            "trialTime": 0
        },
        {
            "exptPart": "trial",
            "trialNumber": 36,
            "roleCurrent": "receiver",
            "marblesSampled": 100,
            "probRed": 0.5,
            "lambda": 5,
            "drawnRed": 38,
            "reportedRed": 43,
            "inferredRed": 34,
            "playerTrialScore": -4,
            "oppTrialScore": 0,
            "playerTotalScore": 166,
            "oppTotalScore": -416,
            "waitTime": 5893.805635446375,
            "responseTime": 1642389297040,
            "catchQuestion": "How many <b class=\"r\">red<\/b> marbles did your opponent report drawing? ",
            "catchKey": -1,
            "catchResponse": -1,
            "catchTime": 1642389285896,
            "trialTime": 0
        },
        {
            "exptPart": "trial",
            "trialNumber": 37,
            "roleCurrent": "sender",
            "marblesSampled": 100,
            "probRed": 0.5,
            "lambda": 5,
            "drawnRed": 62,
            "reportedRed": 87,
            "inferredRed": 84,
            "playerTrialScore": 22,
            "oppTrialScore": -22,
            "playerTotalScore": 188,
            "oppTotalScore": -438,
            "waitTime": 2646.3482854490358,
            "responseTime": 1642389319828,
            "catchQuestion": "How many <b class=\"r\">red<\/b> marbles did your opponent report drawing? ",
            "catchKey": -1,
            "catchResponse": -1,
            "catchTime": 1642389285896,
            "trialTime": 0
        },
        {
            "exptPart": "trial",
            "trialNumber": 38,
            "roleCurrent": "receiver",
            "marblesSampled": 100,
            "probRed": 0.5,
            "lambda": 5,
            "drawnRed": 59,
            "reportedRed": 64,
            "inferredRed": 47,
            "playerTrialScore": -12,
            "oppTrialScore": 0,
            "playerTotalScore": 176,
            "oppTotalScore": -438,
            "waitTime": 5127.431601982188,
            "responseTime": 1642389333376,
            "catchQuestion": "How many <b class=\"r\">red<\/b> marbles did your opponent report drawing? ",
            "catchKey": -1,
            "catchResponse": -1,
            "catchTime": 1642389285896,
            "trialTime": 0
        },
        {
            "exptPart": "trial",
            "trialNumber": 39,
            "roleCurrent": "sender",
            "marblesSampled": 100,
            "probRed": 0.5,
            "lambda": 5,
            "drawnRed": 68,
            "reportedRed": 68,
            "inferredRed": 62,
            "playerTrialScore": 0,
            "oppTrialScore": -6,
            "playerTotalScore": 176,
            "oppTotalScore": -444,
            "waitTime": 2103.056928605121,
            "responseTime": 1642389341190,
            "catchQuestion": "How many <b class=\"r\">red<\/b> marbles did your opponent report drawing? ",
            "catchKey": -1,
            "catchResponse": -1,
            "catchTime": 1642389285896,
            "trialTime": 0
        },
        {
            "exptPart": "trial",
            "trialNumber": 40,
            "roleCurrent": "receiver",
            "marblesSampled": 100,
            "probRed": 0.5,
            "lambda": 5,
            "drawnRed": 43,
            "reportedRed": 49,
            "inferredRed": 26,
            "playerTrialScore": -17,
            "oppTrialScore": 0,
            "playerTotalScore": 159,
            "oppTotalScore": -444,
            "waitTime": 5454.826500480078,
            "responseTime": 1642389350512,
            "catchQuestion": "How many <b class=\"r\">red<\/b> marbles did your opponent report drawing? ",
            "catchKey": -1,
            "catchResponse": -1,
            "catchTime": 1642389350512,
            "trialTime": 0
        },
        {
            "exptPart": "trial",
            "trialNumber": 41,
            "roleCurrent": "sender",
            "marblesSampled": 100,
            "probRed": 0.5,
            "lambda": 5,
            "drawnRed": 95,
            "reportedRed": 92,
            "inferredRed": 85,
            "playerTrialScore": 0,
            "oppTrialScore": -10,
            "playerTotalScore": 159,
            "oppTotalScore": -454,
            "waitTime": 2288.1599382998243,
            "responseTime": 1642389365568,
            "catchQuestion": "How many <b class=\"r\">red<\/b> marbles did you actually draw (before any changes)? ",
            "catchKey": 95,
            "catchResponse": 95,
            "catchTime": 1642389365568,
            "trialTime": 0
        },
        {
            "exptPart": "trial",
            "trialNumber": 42,
            "roleCurrent": "receiver",
            "marblesSampled": 100,
            "probRed": 0.5,
            "lambda": 5,
            "drawnRed": 35,
            "reportedRed": 38,
            "inferredRed": 16,
            "playerTrialScore": -19,
            "oppTrialScore": 0,
            "playerTotalScore": 140,
            "oppTotalScore": -454,
            "waitTime": 5402.950141418434,
            "responseTime": 1642389379352,
            "catchQuestion": "How many <b class=\"r\">red<\/b> marbles did you actually draw (before any changes)? ",
            "catchKey": -1,
            "catchResponse": -1,
            "catchTime": 1642389365568,
            "trialTime": 0
        },
        {
            "exptPart": "trial",
            "trialNumber": 43,
            "roleCurrent": "sender",
            "marblesSampled": 100,
            "probRed": 0.5,
            "lambda": 5,
            "drawnRed": 67,
            "reportedRed": 80,
            "inferredRed": 73,
            "playerTrialScore": 6,
            "oppTrialScore": -6,
            "playerTotalScore": 146,
            "oppTotalScore": -460,
            "waitTime": 2880.313430766648,
            "responseTime": 1642389394488,
            "catchQuestion": "How many <b class=\"r\">red<\/b> marbles did you actually draw (before any changes)? ",
            "catchKey": -1,
            "catchResponse": -1,
            "catchTime": 1642389365568,
            "trialTime": 0
        },
        {
            "exptPart": "trial",
            "trialNumber": 44,
            "roleCurrent": "receiver",
            "marblesSampled": 100,
            "probRed": 0.5,
            "lambda": 5,
            "drawnRed": 52,
            "reportedRed": 59,
            "inferredRed": 35,
            "playerTrialScore": -17,
            "oppTrialScore": 0,
            "playerTotalScore": 129,
            "oppTotalScore": -460,
            "waitTime": 5795.049503410213,
            "responseTime": 1642389404036,
            "catchQuestion": "How many <b class=\"r\">red<\/b> marbles did you actually draw (before any changes)? ",
            "catchKey": -1,
            "catchResponse": -1,
            "catchTime": 1642389365568,
            "trialTime": 0
        },
        {
            "exptPart": "trial",
            "trialNumber": 45,
            "roleCurrent": "sender",
            "marblesSampled": 100,
            "probRed": 0.5,
            "lambda": 5,
            "drawnRed": 48,
            "reportedRed": 74,
            "inferredRed": 66,
            "playerTrialScore": 18,
            "oppTrialScore": -18,
            "playerTotalScore": 147,
            "oppTotalScore": -478,
            "waitTime": 2489.90218348728,
            "responseTime": 1642389426902,
            "catchQuestion": "How many <b class=\"r\">red<\/b> marbles did you actually draw (before any changes)? ",
            "catchKey": -1,
            "catchResponse": -1,
            "catchTime": 1642389426902,
            "trialTime": 0
        },
        {
            "exptPart": "trial",
            "trialNumber": 46,
            "roleCurrent": "receiver",
            "marblesSampled": 100,
            "probRed": 0.5,
            "lambda": 5,
            "drawnRed": 68,
            "reportedRed": 72,
            "inferredRed": 46,
            "playerTrialScore": -22,
            "oppTrialScore": 0,
            "playerTotalScore": 125,
            "oppTotalScore": -478,
            "waitTime": 6931.768759922341,
            "responseTime": 1642389439206,
            "catchQuestion": "How many <b class=\"r\">red<\/b> marbles did you actually draw (before any changes)? ",
            "catchKey": -1,
            "catchResponse": -1,
            "catchTime": 1642389426902,
            "trialTime": 0
        },
        {
            "exptPart": "trial",
            "trialNumber": 47,
            "roleCurrent": "sender",
            "marblesSampled": 100,
            "probRed": 0.5,
            "lambda": 5,
            "drawnRed": 26,
            "reportedRed": 69,
            "inferredRed": 62,
            "playerTrialScore": 36,
            "oppTrialScore": -36,
            "playerTotalScore": 161,
            "oppTotalScore": -514,
            "waitTime": 2474.045503593442,
            "responseTime": 1642389470307,
            "catchQuestion": "How many <b class=\"r\">red<\/b> marbles did you actually draw (before any changes)? ",
            "catchKey": -1,
            "catchResponse": -1,
            "catchTime": 1642389426902,
            "trialTime": 0
        },
        {
            "exptPart": "trial",
            "trialNumber": 48,
            "roleCurrent": "receiver",
            "marblesSampled": 100,
            "probRed": 0.5,
            "lambda": 5,
            "drawnRed": 31,
            "reportedRed": 34,
            "inferredRed": 17,
            "playerTrialScore": -14,
            "oppTrialScore": 0,
            "playerTotalScore": 147,
            "oppTotalScore": -514,
            "waitTime": 6477.8074076322155,
            "responseTime": 1642389481836,
            "catchQuestion": "How many <b class=\"r\">red<\/b> marbles did you actually draw (before any changes)? ",
            "catchKey": -1,
            "catchResponse": -1,
            "catchTime": 1642389426902,
            "trialTime": 0
        },
        {
            "exptPart": "trial",
            "trialNumber": 49,
            "roleCurrent": "sender",
            "marblesSampled": 100,
            "probRed": 0.5,
            "lambda": 5,
            "drawnRed": 47,
            "reportedRed": 70,
            "inferredRed": 68,
            "playerTrialScore": 21,
            "oppTrialScore": -21,
            "playerTotalScore": 168,
            "oppTotalScore": -535,
            "waitTime": 3101.14768026826,
            "responseTime": 1642389500650,
            "catchQuestion": "How many <b class=\"r\">red<\/b> marbles did you actually draw (before any changes)? ",
            "catchKey": -1,
            "catchResponse": -1,
            "catchTime": 1642389426902,
            "trialTime": 0
        },
        {
            "exptPart": "trial",
            "trialNumber": 50,
            "roleCurrent": "receiver",
            "marblesSampled": 100,
            "probRed": 0.5,
            "lambda": 5,
            "drawnRed": 60,
            "reportedRed": 67,
            "inferredRed": 48,
            "playerTrialScore": -12,
            "oppTrialScore": 0,
            "playerTotalScore": 156,
            "oppTotalScore": -535,
            "waitTime": 5853.351100795442,
            "responseTime": 1642389510149,
            "catchQuestion": "How many <b class=\"r\">red<\/b> marbles did you actually draw (before any changes)? ",
            "catchKey": -1,
            "catchResponse": -1,
            "catchTime": 1642389510149,
            "trialTime": 0
        },
        {
            "exptPart": "trial",
            "trialNumber": 51,
            "roleCurrent": "sender",
            "marblesSampled": 100,
            "probRed": 0.5,
            "lambda": 5,
            "drawnRed": 82,
            "reportedRed": 87,
            "inferredRed": 80,
            "playerTrialScore": 0,
            "oppTrialScore": -2,
            "playerTotalScore": 156,
            "oppTotalScore": -537,
            "waitTime": 2970.8104556317976,
            "responseTime": 1642389522948,
            "catchQuestion": "How many <b class=\"r\">red<\/b> marbles did you actually draw (before any changes)? ",
            "catchKey": -1,
            "catchResponse": -1,
            "catchTime": 1642389510149,
            "trialTime": 0
        },
        {
            "exptPart": "trial",
            "trialNumber": 52,
            "roleCurrent": "receiver",
            "marblesSampled": 100,
            "probRed": 0.5,
            "lambda": 5,
            "drawnRed": 39,
            "reportedRed": 44,
            "inferredRed": 28,
            "playerTrialScore": -11,
            "oppTrialScore": 0,
            "playerTotalScore": 145,
            "oppTotalScore": -537,
            "waitTime": 6482.72761247607,
            "responseTime": 1642389533536,
            "catchQuestion": "How many <b class=\"r\">red<\/b> marbles did you actually draw (before any changes)? ",
            "catchKey": -1,
            "catchResponse": -1,
            "catchTime": 1642389510149,
            "trialTime": 0
        },
        {
            "exptPart": "trial",
            "trialNumber": 53,
            "roleCurrent": "sender",
            "marblesSampled": 100,
            "probRed": 0.5,
            "lambda": 5,
            "drawnRed": 35,
            "reportedRed": 66,
            "inferredRed": 64,
            "playerTrialScore": 29,
            "oppTrialScore": -29,
            "playerTotalScore": 174,
            "oppTotalScore": -566,
            "waitTime": 2447.1645062275256,
            "responseTime": 1642389556083,
            "catchQuestion": "How many <b class=\"r\">red<\/b> marbles did you actually draw (before any changes)? ",
            "catchKey": -1,
            "catchResponse": -1,
            "catchTime": 1642389510149,
            "trialTime": 0
        },
        {
            "exptPart": "trial",
            "trialNumber": 54,
            "roleCurrent": "receiver",
            "marblesSampled": 100,
            "probRed": 0.5,
            "lambda": 5,
            "drawnRed": 62,
            "reportedRed": 67,
            "inferredRed": 39,
            "playerTrialScore": -23,
            "oppTrialScore": 0,
            "playerTotalScore": 151,
            "oppTotalScore": -566,
            "waitTime": 6608.3748704879745,
            "responseTime": 1642389567634,
            "catchQuestion": "How many <b class=\"r\">red<\/b> marbles did you actually draw (before any changes)? ",
            "catchKey": -1,
            "catchResponse": -1,
            "catchTime": 1642389510149,
            "trialTime": 0
        },
        {
            "exptPart": "trial",
            "trialNumber": 55,
            "roleCurrent": "sender",
            "marblesSampled": 100,
            "probRed": 0.5,
            "lambda": 5,
            "drawnRed": 79,
            "reportedRed": 88,
            "inferredRed": 82,
            "playerTrialScore": 3,
            "oppTrialScore": -3,
            "playerTotalScore": 154,
            "oppTotalScore": -569,
            "waitTime": 3239.2949631868323,
            "responseTime": 1642389581577,
            "catchQuestion": "How many <b class=\"r\">red<\/b> marbles did you actually draw (before any changes)? ",
            "catchKey": -1,
            "catchResponse": -1,
            "catchTime": 1642389581577,
            "trialTime": 0
        },
        {
            "exptPart": "trial",
            "trialNumber": 56,
            "roleCurrent": "receiver",
            "marblesSampled": 100,
            "probRed": 0.5,
            "lambda": 5,
            "drawnRed": 37,
            "reportedRed": 42,
            "inferredRed": 35,
            "playerTrialScore": -2,
            "oppTrialScore": 0,
            "playerTotalScore": 152,
            "oppTotalScore": -569,
            "waitTime": 6454.949197321177,
            "responseTime": 1642389593386,
            "catchQuestion": "How many <b class=\"r\">red<\/b> marbles did you actually draw (before any changes)? ",
            "catchKey": -1,
            "catchResponse": -1,
            "catchTime": 1642389581577,
            "trialTime": 0
        },
        {
            "exptPart": "trial",
            "trialNumber": 57,
            "roleCurrent": "sender",
            "marblesSampled": 100,
            "probRed": 0.5,
            "lambda": 5,
            "drawnRed": 50,
            "reportedRed": 73,
            "inferredRed": 70,
            "playerTrialScore": 20,
            "oppTrialScore": -20,
            "playerTotalScore": 172,
            "oppTotalScore": -589,
            "waitTime": 2917.554204368084,
            "responseTime": 1642389612558,
            "catchQuestion": "How many <b class=\"r\">red<\/b> marbles did you actually draw (before any changes)? ",
            "catchKey": -1,
            "catchResponse": -1,
            "catchTime": 1642389581577,
            "trialTime": 0
        },
        {
            "exptPart": "trial",
            "trialNumber": 58,
            "roleCurrent": "receiver",
            "marblesSampled": 100,
            "probRed": 0.5,
            "lambda": 5,
            "drawnRed": 61,
            "reportedRed": 70,
            "inferredRed": 35,
            "playerTrialScore": -26,
            "oppTrialScore": 0,
            "playerTotalScore": 146,
            "oppTotalScore": -589,
            "waitTime": 5637.353226309082,
            "responseTime": 1642389622266,
            "catchQuestion": "How many <b class=\"r\">red<\/b> marbles did you actually draw (before any changes)? ",
            "catchKey": -1,
            "catchResponse": -1,
            "catchTime": 1642389581577,
            "trialTime": 0
        },
        {
            "exptPart": "trial",
            "trialNumber": 59,
            "roleCurrent": "sender",
            "marblesSampled": 100,
            "probRed": 0.5,
            "lambda": 5,
            "drawnRed": 18,
            "reportedRed": 66,
            "inferredRed": 56,
            "playerTrialScore": 38,
            "oppTrialScore": -38,
            "playerTotalScore": 184,
            "oppTotalScore": -627,
            "waitTime": 2718.1174958479023,
            "responseTime": 1642389649562,
            "catchQuestion": "How many <b class=\"r\">red<\/b> marbles did you actually draw (before any changes)? ",
            "catchKey": -1,
            "catchResponse": -1,
            "catchTime": 1642389581577,
            "trialTime": 0
        },
        {
            "exptPart": "trial",
            "trialNumber": 60,
            "roleCurrent": "receiver",
            "marblesSampled": 100,
            "probRed": 0.5,
            "lambda": 5,
            "drawnRed": 69,
            "reportedRed": 74,
            "inferredRed": 50,
            "playerTrialScore": -19,
            "oppTrialScore": 0,
            "playerTotalScore": 165,
            "oppTotalScore": -627,
            "waitTime": 6451.197814640764,
            "responseTime": 1642389659869,
            "catchQuestion": "How many <b class=\"r\">red<\/b> marbles did you actually draw (before any changes)? ",
            "catchKey": -1,
            "catchResponse": -1,
            "catchTime": 1642389659869,
            "trialTime": 0
        },
        {
            "exptPart": "trial",
            "trialNumber": 61,
            "roleCurrent": "sender",
            "marblesSampled": 100,
            "probRed": 0.5,
            "lambda": 5,
            "drawnRed": 20,
            "reportedRed": 49,
            "inferredRed": 46,
            "playerTrialScore": 26,
            "oppTrialScore": -26,
            "playerTotalScore": 191,
            "oppTotalScore": -653,
            "waitTime": 2552.9893061931775,
            "responseTime": 1642389682216,
            "catchQuestion": "How many <b class=\"r\">red<\/b> marbles did you actually draw (before any changes)? ",
            "catchKey": -1,
            "catchResponse": -1,
            "catchTime": 1642389659869,
            "trialTime": 0
        },
        {
            "exptPart": "trial",
            "trialNumber": 62,
            "roleCurrent": "receiver",
            "marblesSampled": 100,
            "probRed": 0.5,
            "lambda": 5,
            "drawnRed": 47,
            "reportedRed": 50,
            "inferredRed": 25,
            "playerTrialScore": -22,
            "oppTrialScore": 0,
            "playerTotalScore": 169,
            "oppTotalScore": -653,
            "waitTime": 7433.187179703339,
            "responseTime": 1642389693636,
            "catchQuestion": "How many <b class=\"r\">red<\/b> marbles did you actually draw (before any changes)? ",
            "catchKey": -1,
            "catchResponse": -1,
            "catchTime": 1642389659869,
            "trialTime": 0
        },
        {
            "exptPart": "trial",
            "trialNumber": 63,
            "roleCurrent": "sender",
            "marblesSampled": 100,
            "probRed": 0.5,
            "lambda": 5,
            "drawnRed": 39,
            "reportedRed": 68,
            "inferredRed": 62,
            "playerTrialScore": 23,
            "oppTrialScore": -23,
            "playerTotalScore": 192,
            "oppTotalScore": -676,
            "waitTime": 2484.9433547631124,
            "responseTime": 1642389714403,
            "catchQuestion": "How many <b class=\"r\">red<\/b> marbles did you actually draw (before any changes)? ",
            "catchKey": -1,
            "catchResponse": -1,
            "catchTime": 1642389659869,
            "trialTime": 0
        },
        {
            "exptPart": "trial",
            "trialNumber": 64,
            "roleCurrent": "receiver",
            "marblesSampled": 100,
            "probRed": 0.5,
            "lambda": 5,
            "drawnRed": 54,
            "reportedRed": 60,
            "inferredRed": 40,
            "playerTrialScore": -14,
            "oppTrialScore": 0,
            "playerTotalScore": 178,
            "oppTotalScore": -676,
            "waitTime": 5285.210550781429,
            "responseTime": 1642389724005,
            "catchQuestion": "How many <b class=\"r\">red<\/b> marbles did you actually draw (before any changes)? ",
            "catchKey": -1,
            "catchResponse": -1,
            "catchTime": 1642389659869,
            "trialTime": 0
        },
        {
            "exptPart": "trial",
            "trialNumber": 65,
            "roleCurrent": "sender",
            "marblesSampled": 100,
            "probRed": 0.5,
            "lambda": 5,
            "drawnRed": 52,
            "reportedRed": 70,
            "inferredRed": 67,
            "playerTrialScore": 15,
            "oppTrialScore": -15,
            "playerTotalScore": 193,
            "oppTotalScore": -691,
            "waitTime": 2753.014101052874,
            "responseTime": 1642389738581,
            "catchQuestion": "How many <b class=\"r\">red<\/b> marbles did you actually draw (before any changes)? ",
            "catchKey": 52,
            "catchResponse": 52,
            "catchTime": 1642389738581,
            "trialTime": 0
        },
        {
            "exptPart": "trial",
            "trialNumber": 66,
            "roleCurrent": "receiver",
            "marblesSampled": 100,
            "probRed": 0.5,
            "lambda": 5,
            "drawnRed": 20,
            "reportedRed": 22,
            "inferredRed": 10,
            "playerTrialScore": -10,
            "oppTrialScore": 0,
            "playerTotalScore": 183,
            "oppTotalScore": -691,
            "waitTime": 5644.228324273036,
            "responseTime": 1642389753213,
            "catchQuestion": "How many <b class=\"r\">red<\/b> marbles did you actually draw (before any changes)? ",
            "catchKey": -1,
            "catchResponse": -1,
            "catchTime": 1642389738581,
            "trialTime": 0
        },
        {
            "exptPart": "trial",
            "trialNumber": 67,
            "roleCurrent": "sender",
            "marblesSampled": 100,
            "probRed": 0.5,
            "lambda": 5,
            "drawnRed": 62,
            "reportedRed": 78,
            "inferredRed": 72,
            "playerTrialScore": 10,
            "oppTrialScore": -10,
            "playerTotalScore": 193,
            "oppTotalScore": -701,
            "waitTime": 2103.8844018855843,
            "responseTime": 1642389769123,
            "catchQuestion": "How many <b class=\"r\">red<\/b> marbles did you actually draw (before any changes)? ",
            "catchKey": -1,
            "catchResponse": -1,
            "catchTime": 1642389738581,
            "trialTime": 0
        },
        {
            "exptPart": "trial",
            "trialNumber": 68,
            "roleCurrent": "receiver",
            "marblesSampled": 100,
            "probRed": 0.5,
            "lambda": 5,
            "drawnRed": 56,
            "reportedRed": 66,
            "inferredRed": 46,
            "playerTrialScore": -10,
            "oppTrialScore": 0,
            "playerTotalScore": 183,
            "oppTotalScore": -701,
            "waitTime": 5178.728413726372,
            "responseTime": 1642389778742,
            "catchQuestion": "How many <b class=\"r\">red<\/b> marbles did you actually draw (before any changes)? ",
            "catchKey": -1,
            "catchResponse": -1,
            "catchTime": 1642389738581,
            "trialTime": 0
        },
        {
            "exptPart": "trial",
            "trialNumber": 69,
            "roleCurrent": "sender",
            "marblesSampled": 100,
            "probRed": 0.5,
            "lambda": 5,
            "drawnRed": 49,
            "reportedRed": 70,
            "inferredRed": 64,
            "playerTrialScore": 15,
            "oppTrialScore": -15,
            "playerTotalScore": 198,
            "oppTotalScore": -716,
            "waitTime": 2178.3312794801686,
            "responseTime": 1642389798307,
            "catchQuestion": "How many <b class=\"r\">red<\/b> marbles did you actually draw (before any changes)? ",
            "catchKey": -1,
            "catchResponse": -1,
            "catchTime": 1642389738581,
            "trialTime": 0
        },
        {
            "exptPart": "trial",
            "trialNumber": 70,
            "roleCurrent": "receiver",
            "marblesSampled": 100,
            "probRed": 0.5,
            "lambda": 5,
            "drawnRed": 48,
            "reportedRed": 51,
            "inferredRed": 37,
            "playerTrialScore": -11,
            "oppTrialScore": 0,
            "playerTotalScore": 187,
            "oppTotalScore": -716,
            "waitTime": 7036.443765529833,
            "responseTime": 1642389811381,
            "catchQuestion": "How many <b class=\"r\">red<\/b> marbles did you actually draw (before any changes)? ",
            "catchKey": -1,
            "catchResponse": -1,
            "catchTime": 1642389811381,
            "trialTime": 0
        },
        {
            "exptPart": "trial",
            "trialNumber": 71,
            "roleCurrent": "sender",
            "marblesSampled": 100,
            "probRed": 0.5,
            "lambda": 5,
            "drawnRed": 54,
            "reportedRed": 77,
            "inferredRed": 67,
            "playerTrialScore": 13,
            "oppTrialScore": -13,
            "playerTotalScore": 200,
            "oppTotalScore": -729,
            "waitTime": 2355.684248449218,
            "responseTime": 1642389832381,
            "catchQuestion": "How many <b class=\"r\">red<\/b> marbles did you actually draw (before any changes)? ",
            "catchKey": 54,
            "catchResponse": 56,
            "catchTime": 1642389832381,
            "trialTime": 0
        },
        {
            "exptPart": "trial",
            "trialNumber": 72,
            "roleCurrent": "receiver",
            "marblesSampled": 100,
            "probRed": 0.5,
            "lambda": 5,
            "drawnRed": 25,
            "reportedRed": 34,
            "inferredRed": 24,
            "playerTrialScore": -1,
            "oppTrialScore": 0,
            "playerTotalScore": 199,
            "oppTotalScore": -729,
            "waitTime": 6298.334876024619,
            "responseTime": 1642389856609,
            "catchQuestion": "How many <b class=\"r\">red<\/b> marbles did you actually draw (before any changes)? ",
            "catchKey": -1,
            "catchResponse": -1,
            "catchTime": 1642389832381,
            "trialTime": 0
        },
        {
            "exptPart": "trial",
            "trialNumber": 73,
            "roleCurrent": "sender",
            "marblesSampled": 100,
            "probRed": 0.5,
            "lambda": 5,
            "drawnRed": 56,
            "reportedRed": 80,
            "inferredRed": 72,
            "playerTrialScore": 16,
            "oppTrialScore": -16,
            "playerTotalScore": 215,
            "oppTotalScore": -745,
            "waitTime": 3249.0124181222864,
            "responseTime": 1642389879765,
            "catchQuestion": "How many <b class=\"r\">red<\/b> marbles did you actually draw (before any changes)? ",
            "catchKey": -1,
            "catchResponse": -1,
            "catchTime": 1642389832381,
            "trialTime": 0
        },
        {
            "exptPart": "trial",
            "trialNumber": 74,
            "roleCurrent": "receiver",
            "marblesSampled": 100,
            "probRed": 0.5,
            "lambda": 5,
            "drawnRed": 37,
            "reportedRed": 43,
            "inferredRed": 10,
            "playerTrialScore": -27,
            "oppTrialScore": 0,
            "playerTotalScore": 188,
            "oppTotalScore": -745,
            "waitTime": 5721.52605588167,
            "responseTime": 1642389891751,
            "catchQuestion": "How many <b class=\"r\">red<\/b> marbles did you actually draw (before any changes)? ",
            "catchKey": -1,
            "catchResponse": -1,
            "catchTime": 1642389832381,
            "trialTime": 0
        },
        {
            "exptPart": "trial",
            "trialNumber": 75,
            "roleCurrent": "sender",
            "marblesSampled": 100,
            "probRed": 0.5,
            "lambda": 5,
            "drawnRed": 91,
            "reportedRed": 91,
            "inferredRed": 86,
            "playerTrialScore": 0,
            "oppTrialScore": -5,
            "playerTotalScore": 188,
            "oppTotalScore": -750,
            "waitTime": 2896.2380633944576,
            "responseTime": 1642389907079,
            "catchQuestion": "How many <b class=\"r\">red<\/b> marbles did you actually draw (before any changes)? ",
            "catchKey": 91,
            "catchResponse": 91,
            "catchTime": 1642389907079,
            "trialTime": 0
        },
        {
            "exptPart": "trial",
            "trialNumber": 76,
            "roleCurrent": "receiver",
            "marblesSampled": 100,
            "probRed": 0.5,
            "lambda": 5,
            "drawnRed": 43,
            "reportedRed": 50,
            "inferredRed": 29,
            "playerTrialScore": -14,
            "oppTrialScore": 0,
            "playerTotalScore": 174,
            "oppTotalScore": -750,
            "waitTime": 5779.31576326126,
            "responseTime": 1642389924503,
            "catchQuestion": "How many <b class=\"r\">red<\/b> marbles did you actually draw (before any changes)? ",
            "catchKey": -1,
            "catchResponse": -1,
            "catchTime": 1642389907079,
            "trialTime": 0
        },
        {
            "exptPart": "trial",
            "trialNumber": 77,
            "roleCurrent": "sender",
            "marblesSampled": 100,
            "probRed": 0.5,
            "lambda": 5,
            "drawnRed": 36,
            "reportedRed": 79,
            "inferredRed": 70,
            "playerTrialScore": 34,
            "oppTrialScore": -34,
            "playerTotalScore": 208,
            "oppTotalScore": -784,
            "waitTime": 2801.536625282272,
            "responseTime": 1642389952783,
            "catchQuestion": "How many <b class=\"r\">red<\/b> marbles did you actually draw (before any changes)? ",
            "catchKey": -1,
            "catchResponse": -1,
            "catchTime": 1642389907079,
            "trialTime": 0
        },
        {
            "exptPart": "trial",
            "trialNumber": 78,
            "roleCurrent": "receiver",
            "marblesSampled": 100,
            "probRed": 0.5,
            "lambda": 5,
            "drawnRed": 62,
            "reportedRed": 65,
            "inferredRed": 33,
            "playerTrialScore": -29,
            "oppTrialScore": 0,
            "playerTotalScore": 179,
            "oppTotalScore": -784,
            "waitTime": 5985.08903109948,
            "responseTime": 1642389962599,
            "catchQuestion": "How many <b class=\"r\">red<\/b> marbles did your opponent report drawing? ",
            "catchKey": 65,
            "catchResponse": 65,
            "catchTime": 1642389962600,
            "trialTime": 0
        },
        {
            "exptPart": "trial",
            "trialNumber": 79,
            "roleCurrent": "sender",
            "marblesSampled": 100,
            "probRed": 0.5,
            "lambda": 5,
            "drawnRed": 32,
            "reportedRed": 75,
            "inferredRed": 70,
            "playerTrialScore": 38,
            "oppTrialScore": -38,
            "playerTotalScore": 217,
            "oppTotalScore": -822,
            "waitTime": 2694.6698481595895,
            "responseTime": 1642389995041,
            "catchQuestion": "How many <b class=\"r\">red<\/b> marbles did your opponent report drawing? ",
            "catchKey": -1,
            "catchResponse": -1,
            "catchTime": 1642389962600,
            "trialTime": 0
        },
        {
            "exptPart": "trial",
            "trialNumber": 80,
            "roleCurrent": "receiver",
            "marblesSampled": 100,
            "probRed": 0.5,
            "lambda": 5,
            "drawnRed": 65,
            "reportedRed": 71,
            "inferredRed": 35,
            "playerTrialScore": -30,
            "oppTrialScore": 0,
            "playerTotalScore": 187,
            "oppTotalScore": -822,
            "waitTime": 5428.074220821789,
            "responseTime": 1642390004001,
            "catchQuestion": "How many <b class=\"r\">red<\/b> marbles did your opponent report drawing? ",
            "catchKey": -1,
            "catchResponse": -1,
            "catchTime": 1642390004001,
            "trialTime": 0
        },
        {
            "exptPart": "trial",
            "trialNumber": 81,
            "roleCurrent": "sender",
            "marblesSampled": 100,
            "probRed": 0.5,
            "lambda": 5,
            "drawnRed": 86,
            "reportedRed": 86,
            "inferredRed": 85,
            "playerTrialScore": 0,
            "oppTrialScore": -1,
            "playerTotalScore": 187,
            "oppTotalScore": -823,
            "waitTime": 2772.7565846995153,
            "responseTime": 1642390014433,
            "catchQuestion": "How many <b class=\"r\">red<\/b> marbles did your opponent report drawing? ",
            "catchKey": -1,
            "catchResponse": -1,
            "catchTime": 1642390004001,
            "trialTime": 0
        },
        {
            "exptPart": "trial",
            "trialNumber": 82,
            "roleCurrent": "receiver",
            "marblesSampled": 100,
            "probRed": 0.5,
            "lambda": 5,
            "drawnRed": 72,
            "reportedRed": 76,
            "inferredRed": 50,
            "playerTrialScore": -22,
            "oppTrialScore": 0,
            "playerTotalScore": 165,
            "oppTotalScore": -823,
            "waitTime": 5255.126957829787,
            "responseTime": 1642390023057,
            "catchQuestion": "How many <b class=\"r\">red<\/b> marbles did your opponent report drawing? ",
            "catchKey": -1,
            "catchResponse": -1,
            "catchTime": 1642390004001,
            "trialTime": 0
        },
        {
            "exptPart": "trial",
            "trialNumber": 83,
            "roleCurrent": "sender",
            "marblesSampled": 100,
            "probRed": 0.5,
            "lambda": 5,
            "drawnRed": 68,
            "reportedRed": 75,
            "inferredRed": 71,
            "playerTrialScore": 3,
            "oppTrialScore": -3,
            "playerTotalScore": 168,
            "oppTotalScore": -826,
            "waitTime": 2776.1241472686233,
            "responseTime": 1642390034829,
            "catchQuestion": "How many <b class=\"r\">red<\/b> marbles did your opponent report drawing? ",
            "catchKey": -1,
            "catchResponse": -1,
            "catchTime": 1642390004001,
            "trialTime": 0
        },
        {
            "exptPart": "trial",
            "trialNumber": 84,
            "roleCurrent": "receiver",
            "marblesSampled": 100,
            "probRed": 0.5,
            "lambda": 5,
            "drawnRed": 12,
            "reportedRed": 16,
            "inferredRed": 6,
            "playerTrialScore": -6,
            "oppTrialScore": 0,
            "playerTotalScore": 162,
            "oppTotalScore": -826,
            "waitTime": 5133.044775955474,
            "responseTime": 1642390044031,
            "catchQuestion": "How many <b class=\"r\">red<\/b> marbles did your opponent report drawing? ",
            "catchKey": -1,
            "catchResponse": -1,
            "catchTime": 1642390004001,
            "trialTime": 0
        },
        {
            "exptPart": "trial",
            "trialNumber": 85,
            "roleCurrent": "sender",
            "marblesSampled": 100,
            "probRed": 0.5,
            "lambda": 5,
            "drawnRed": 65,
            "reportedRed": 72,
            "inferredRed": 66,
            "playerTrialScore": 1,
            "oppTrialScore": -1,
            "playerTotalScore": 163,
            "oppTotalScore": -827,
            "waitTime": 2100.2403521884,
            "responseTime": 1642390056307,
            "catchQuestion": "How many <b class=\"r\">red<\/b> marbles did your opponent report drawing? ",
            "catchKey": -1,
            "catchResponse": -1,
            "catchTime": 1642390056307,
            "trialTime": 0
        },
        {
            "exptPart": "trial",
            "trialNumber": 86,
            "roleCurrent": "receiver",
            "marblesSampled": 100,
            "probRed": 0.5,
            "lambda": 5,
            "drawnRed": 48,
            "reportedRed": 50,
            "inferredRed": 27,
            "playerTrialScore": -21,
            "oppTrialScore": 0,
            "playerTotalScore": 142,
            "oppTotalScore": -827,
            "waitTime": 7477.846680434444,
            "responseTime": 1642390069589,
            "catchQuestion": "How many <b class=\"r\">red<\/b> marbles did your opponent report drawing? ",
            "catchKey": -1,
            "catchResponse": -1,
            "catchTime": 1642390056307,
            "trialTime": 0
        },
        {
            "exptPart": "trial",
            "trialNumber": 87,
            "roleCurrent": "sender",
            "marblesSampled": 100,
            "probRed": 0.5,
            "lambda": 5,
            "drawnRed": 25,
            "reportedRed": 64,
            "inferredRed": 58,
            "playerTrialScore": 33,
            "oppTrialScore": -33,
            "playerTotalScore": 175,
            "oppTotalScore": -860,
            "waitTime": 2603.87336416593,
            "responseTime": 1642390093585,
            "catchQuestion": "How many <b class=\"r\">red<\/b> marbles did you actually draw (before any changes)? ",
            "catchKey": 25,
            "catchResponse": 25,
            "catchTime": 1642390093585,
            "trialTime": 0
        },
        {
            "exptPart": "trial",
            "trialNumber": 88,
            "roleCurrent": "receiver",
            "marblesSampled": 100,
            "probRed": 0.5,
            "lambda": 5,
            "drawnRed": 53,
            "reportedRed": 57,
            "inferredRed": 36,
            "playerTrialScore": -17,
            "oppTrialScore": 0,
            "playerTotalScore": 158,
            "oppTotalScore": -860,
            "waitTime": 5471.958924727087,
            "responseTime": 1642390107609,
            "catchQuestion": "How many <b class=\"r\">red<\/b> marbles did you actually draw (before any changes)? ",
            "catchKey": -1,
            "catchResponse": -1,
            "catchTime": 1642390093585,
            "trialTime": 0
        },
        {
            "exptPart": "trial",
            "trialNumber": 89,
            "roleCurrent": "sender",
            "marblesSampled": 100,
            "probRed": 0.5,
            "lambda": 5,
            "drawnRed": 55,
            "reportedRed": 55,
            "inferredRed": 52,
            "playerTrialScore": 0,
            "oppTrialScore": -3,
            "playerTotalScore": 158,
            "oppTotalScore": -863,
            "waitTime": 2796.589402995313,
            "responseTime": 1642390117113,
            "catchQuestion": "How many <b class=\"r\">red<\/b> marbles did you actually draw (before any changes)? ",
            "catchKey": -1,
            "catchResponse": -1,
            "catchTime": 1642390093585,
            "trialTime": 0
        },
        {
            "exptPart": "trial",
            "trialNumber": 90,
            "roleCurrent": "receiver",
            "marblesSampled": 100,
            "probRed": 0.5,
            "lambda": 5,
            "drawnRed": 54,
            "reportedRed": 58,
            "inferredRed": 28,
            "playerTrialScore": -26,
            "oppTrialScore": 0,
            "playerTotalScore": 132,
            "oppTotalScore": -863,
            "waitTime": 5899.898354395362,
            "responseTime": 1642390126042,
            "catchQuestion": "How many <b class=\"r\">red<\/b> marbles did you actually draw (before any changes)? ",
            "catchKey": -1,
            "catchResponse": -1,
            "catchTime": 1642390126042,
            "trialTime": 0
        },
        {
            "exptPart": "trial",
            "trialNumber": 91,
            "roleCurrent": "sender",
            "marblesSampled": 100,
            "probRed": 0.5,
            "lambda": 5,
            "drawnRed": 62,
            "reportedRed": 87,
            "inferredRed": 82,
            "playerTrialScore": 20,
            "oppTrialScore": -20,
            "playerTotalScore": 152,
            "oppTotalScore": -883,
            "waitTime": 2248.403096395383,
            "responseTime": 1642390147833,
            "catchQuestion": "How many <b class=\"r\">red<\/b> marbles did you actually draw (before any changes)? ",
            "catchKey": -1,
            "catchResponse": -1,
            "catchTime": 1642390126042,
            "trialTime": 0
        },
        {
            "exptPart": "trial",
            "trialNumber": 92,
            "roleCurrent": "receiver",
            "marblesSampled": 100,
            "probRed": 0.5,
            "lambda": 5,
            "drawnRed": 40,
            "reportedRed": 44,
            "inferredRed": 18,
            "playerTrialScore": -22,
            "oppTrialScore": 0,
            "playerTotalScore": 130,
            "oppTotalScore": -883,
            "waitTime": 7370.795756787209,
            "responseTime": 1642390160467,
            "catchQuestion": "How many <b class=\"r\">red<\/b> marbles did you actually draw (before any changes)? ",
            "catchKey": -1,
            "catchResponse": -1,
            "catchTime": 1642390126042,
            "trialTime": 0
        },
        {
            "exptPart": "trial",
            "trialNumber": 93,
            "roleCurrent": "sender",
            "marblesSampled": 100,
            "probRed": 0.5,
            "lambda": 5,
            "drawnRed": 37,
            "reportedRed": 64,
            "inferredRed": 57,
            "playerTrialScore": 20,
            "oppTrialScore": -20,
            "playerTotalScore": 150,
            "oppTotalScore": -903,
            "waitTime": 2216.9080485573995,
            "responseTime": 1642390179478,
            "catchQuestion": "How many <b class=\"r\">red<\/b> marbles did you actually draw (before any changes)? ",
            "catchKey": -1,
            "catchResponse": -1,
            "catchTime": 1642390126042,
            "trialTime": 0
        },
        {
            "exptPart": "trial",
            "trialNumber": 94,
            "roleCurrent": "receiver",
            "marblesSampled": 100,
            "probRed": 0.5,
            "lambda": 5,
            "drawnRed": 57,
            "reportedRed": 60,
            "inferredRed": 25,
            "playerTrialScore": -32,
            "oppTrialScore": 0,
            "playerTotalScore": 118,
            "oppTotalScore": -903,
            "waitTime": 6583.365649332691,
            "responseTime": 1642390190085,
            "catchQuestion": "How many <b class=\"r\">red<\/b> marbles did you actually draw (before any changes)? ",
            "catchKey": -1,
            "catchResponse": -1,
            "catchTime": 1642390126042,
            "trialTime": 0
        },
        {
            "exptPart": "trial",
            "trialNumber": 95,
            "roleCurrent": "sender",
            "marblesSampled": 100,
            "probRed": 0.5,
            "lambda": 5,
            "drawnRed": 58,
            "reportedRed": 79,
            "inferredRed": 73,
            "playerTrialScore": 15,
            "oppTrialScore": -15,
            "playerTotalScore": 133,
            "oppTotalScore": -918,
            "waitTime": 2597.42749309189,
            "responseTime": 1642390209780,
            "catchQuestion": "How many <b class=\"r\">red<\/b> marbles did you actually draw (before any changes)? ",
            "catchKey": -1,
            "catchResponse": -1,
            "catchTime": 1642390209780,
            "trialTime": 0
        },
        {
            "exptPart": "trial",
            "trialNumber": 96,
            "roleCurrent": "receiver",
            "marblesSampled": 100,
            "probRed": 0.5,
            "lambda": 5,
            "drawnRed": 24,
            "reportedRed": 26,
            "inferredRed": 8,
            "playerTrialScore": -16,
            "oppTrialScore": 0,
            "playerTotalScore": 117,
            "oppTotalScore": -918,
            "waitTime": 5719.6414166561635,
            "responseTime": 1642390220909,
            "catchQuestion": "How many <b class=\"r\">red<\/b> marbles did you actually draw (before any changes)? ",
            "catchKey": -1,
            "catchResponse": -1,
            "catchTime": 1642390209780,
            "trialTime": 0
        },
        {
            "exptPart": "trial",
            "trialNumber": 97,
            "roleCurrent": "sender",
            "marblesSampled": 100,
            "probRed": 0.5,
            "lambda": 5,
            "drawnRed": 57,
            "reportedRed": 83,
            "inferredRed": 76,
            "playerTrialScore": 19,
            "oppTrialScore": -19,
            "playerTotalScore": 136,
            "oppTotalScore": -937,
            "waitTime": 2989.09458238327,
            "responseTime": 1642390242462,
            "catchQuestion": "How many <b class=\"r\">red<\/b> marbles did you actually draw (before any changes)? ",
            "catchKey": -1,
            "catchResponse": -1,
            "catchTime": 1642390209780,
            "trialTime": 0
        },
        {
            "exptPart": "trial",
            "trialNumber": 98,
            "roleCurrent": "receiver",
            "marblesSampled": 100,
            "probRed": 0.5,
            "lambda": 5,
            "drawnRed": 9,
            "reportedRed": 12,
            "inferredRed": 3,
            "playerTrialScore": -6,
            "oppTrialScore": 0,
            "playerTotalScore": 130,
            "oppTotalScore": -937,
            "waitTime": 6847.64772990309,
            "responseTime": 1642390251812,
            "catchQuestion": "How many <b class=\"r\">red<\/b> marbles did you actually draw (before any changes)? ",
            "catchKey": -1,
            "catchResponse": -1,
            "catchTime": 1642390209780,
            "trialTime": 0
        },
        {
            "exptPart": "trial",
            "trialNumber": 99,
            "roleCurrent": "sender",
            "marblesSampled": 100,
            "probRed": 0.5,
            "lambda": 5,
            "drawnRed": 59,
            "reportedRed": 79,
            "inferredRed": 74,
            "playerTrialScore": 15,
            "oppTrialScore": -15,
            "playerTotalScore": 145,
            "oppTotalScore": -952,
            "waitTime": 2821.426321080332,
            "responseTime": 1642390269693,
            "catchQuestion": "How many <b class=\"r\">red<\/b> marbles did you actually draw (before any changes)? ",
            "catchKey": -1,
            "catchResponse": -1,
            "catchTime": 1642390209780,
            "trialTime": 0
        },
        {
            "exptPart": "trial",
            "trialNumber": 100,
            "roleCurrent": "receiver",
            "marblesSampled": 100,
            "probRed": 0.5,
            "lambda": 5,
            "drawnRed": 63,
            "reportedRed": 69,
            "inferredRed": 36,
            "playerTrialScore": -27,
            "oppTrialScore": 0,
            "playerTotalScore": 118,
            "oppTotalScore": -952,
            "waitTime": 6353.313724477579,
            "responseTime": 1642390279552,
            "catchQuestion": "How many <b class=\"r\">red<\/b> marbles did you actually draw (before any changes)? ",
            "catchKey": -1,
            "catchResponse": -1,
            "catchTime": 1642390279552,
            "trialTime": 0
        }
    ]
}