{
    "client": {
        "type": "sona",
        "experiment_id": 2228,
        "credit_token": "b315147ae43241ea9c65086cb510cfb7",
        "survey_code": "30381",
        "sid": "sona-30381",
        "window": {
            "width": 1536,
            "height": 723
        },
        "screen": {
            "width": 1536,
            "height": 864
        },
        "userAgent": "Mozilla\/5.0 (Windows NT 10.0; Win64; x64) AppleWebKit\/537.36 (KHTML, like Gecko) Chrome\/96.0.4664.110 Safari\/537.36 OPR\/82.0.4227.43",
        "score": 0,
        "bonus": 0
    },
    "expt": {
        "saveURL": "submit.simple.php",
        "trials": 100,
        "practiceTrials": 2,
        "marblesSampled": 100,
        "probRed": 0.5,
        "lambdaAI": 5,
        "roleFirst": "receiver",
        "roles": [
            "sender",
            "receiver"
        ],
        "cost": "linear",
        "goal": "under",
        "catchTrials": [
            2,
            65,
            76,
            74,
            8,
            27,
            96,
            70,
            3,
            31
        ],
        "scoreTotal": {
            "player": 1,
            "opp": -168
        },
        "sona": {
            "experiment_id": 2228,
            "credit_token": "b315147ae43241ea9c65086cb510cfb7"
        },
        "pilot": false,
        "debug": false
    },
    "trials": [
        {
            "exptPart": "practice",
            "trialNumber": 1,
            "roleCurrent": "sender",
            "marblesSampled": 100,
            "probRed": 0.5,
            "lambda": 5,
            "drawnRed": 31,
            "reportedRed": 40,
            "inferredRed": 53,
            "playerTrialScore": 0,
            "oppTrialScore": -22,
            "playerTotalScore": 0,
            "oppTotalScore": -22,
            "waitTime": 2071.242839927692,
            "responseTime": 1642381271246,
            "catchQuestion": "How many <b class=\"r\">red<\/b> marbles did you actually draw (before any changes)? ",
            "catchKey": 31,
            "catchResponse": 30,
            "catchTime": 1642381271247,
            "trialTime": 0
        },
        {
            "exptPart": "practice",
            "trialNumber": 2,
            "roleCurrent": "receiver",
            "marblesSampled": 100,
            "probRed": 0.5,
            "lambda": 5,
            "drawnRed": 39,
            "reportedRed": 35,
            "inferredRed": 40,
            "playerTrialScore": -1,
            "oppTrialScore": 0,
            "playerTotalScore": -1,
            "oppTotalScore": -22,
            "waitTime": 7286.116129335914,
            "responseTime": 1642381418774,
            "catchQuestion": "How many <b class=\"r\">red<\/b> marbles did your opponent report drawing? ",
            "catchKey": 35,
            "catchResponse": 35,
            "catchTime": 1642381418775,
            "trialTime": 0
        },
        {
            "exptPart": "trial",
            "trialNumber": 1,
            "roleCurrent": "receiver",
            "marblesSampled": 100,
            "probRed": 0.5,
            "lambda": 5,
            "drawnRed": 2,
            "reportedRed": 0,
            "inferredRed": 7,
            "playerTrialScore": -5,
            "oppTrialScore": 0,
            "playerTotalScore": -5,
            "oppTotalScore": 0,
            "waitTime": 5844.808355964476,
            "responseTime": 1642381464583,
            "catchQuestion": "How many <b class=\"r\">red<\/b> marbles did your opponent report drawing? ",
            "catchKey": -1,
            "catchResponse": -1,
            "catchTime": 1642381418775,
            "trialTime": 0
        },
        {
            "exptPart": "trial",
            "trialNumber": 2,
            "roleCurrent": "sender",
            "marblesSampled": 100,
            "probRed": 0.5,
            "lambda": 5,
            "drawnRed": 11,
            "reportedRed": 17,
            "inferredRed": 21,
            "playerTrialScore": 0,
            "oppTrialScore": -10,
            "playerTotalScore": -5,
            "oppTotalScore": -10,
            "waitTime": 2118.4802275525053,
            "responseTime": 1642381495811,
            "catchQuestion": "How many <b class=\"r\">red<\/b> marbles did your opponent report drawing? ",
            "catchKey": -1,
            "catchResponse": -1,
            "catchTime": 1642381418775,
            "trialTime": 0
        },
        {
            "exptPart": "trial",
            "trialNumber": 3,
            "roleCurrent": "receiver",
            "marblesSampled": 100,
            "probRed": 0.5,
            "lambda": 5,
            "drawnRed": 76,
            "reportedRed": 71,
            "inferredRed": 75,
            "playerTrialScore": -1,
            "oppTrialScore": 1,
            "playerTotalScore": -6,
            "oppTotalScore": -9,
            "waitTime": 5162.663768478223,
            "responseTime": 1642381515047,
            "catchQuestion": "How many <b class=\"r\">red<\/b> marbles did your opponent report drawing? ",
            "catchKey": 71,
            "catchResponse": 71,
            "catchTime": 1642381515047,
            "trialTime": 0
        },
        {
            "exptPart": "trial",
            "trialNumber": 4,
            "roleCurrent": "sender",
            "marblesSampled": 100,
            "probRed": 0.5,
            "lambda": 5,
            "drawnRed": 27,
            "reportedRed": 32,
            "inferredRed": 37,
            "playerTrialScore": 0,
            "oppTrialScore": -10,
            "playerTotalScore": -6,
            "oppTotalScore": -19,
            "waitTime": 2724.2120031790555,
            "responseTime": 1642381547571,
            "catchQuestion": "How many <b class=\"r\">red<\/b> marbles did you actually draw (before any changes)? ",
            "catchKey": 27,
            "catchResponse": 27,
            "catchTime": 1642381547571,
            "trialTime": 0
        },
        {
            "exptPart": "trial",
            "trialNumber": 5,
            "roleCurrent": "receiver",
            "marblesSampled": 100,
            "probRed": 0.5,
            "lambda": 5,
            "drawnRed": 7,
            "reportedRed": 1,
            "inferredRed": 4,
            "playerTrialScore": -3,
            "oppTrialScore": 3,
            "playerTotalScore": -9,
            "oppTotalScore": -16,
            "waitTime": 5971.896340737195,
            "responseTime": 1642381567081,
            "catchQuestion": "How many <b class=\"r\">red<\/b> marbles did you actually draw (before any changes)? ",
            "catchKey": -1,
            "catchResponse": -1,
            "catchTime": 1642381567082,
            "trialTime": 0
        },
        {
            "exptPart": "trial",
            "trialNumber": 6,
            "roleCurrent": "sender",
            "marblesSampled": 100,
            "probRed": 0.5,
            "lambda": 5,
            "drawnRed": 42,
            "reportedRed": 37,
            "inferredRed": 39,
            "playerTrialScore": 3,
            "oppTrialScore": -3,
            "playerTotalScore": -6,
            "oppTotalScore": -19,
            "waitTime": 2659.233065376444,
            "responseTime": 1642381632288,
            "catchQuestion": "How many <b class=\"r\">red<\/b> marbles did you actually draw (before any changes)? ",
            "catchKey": -1,
            "catchResponse": -1,
            "catchTime": 1642381567082,
            "trialTime": 0
        },
        {
            "exptPart": "trial",
            "trialNumber": 7,
            "roleCurrent": "receiver",
            "marblesSampled": 100,
            "probRed": 0.5,
            "lambda": 5,
            "drawnRed": 43,
            "reportedRed": 39,
            "inferredRed": 45,
            "playerTrialScore": -2,
            "oppTrialScore": 0,
            "playerTotalScore": -8,
            "oppTotalScore": -19,
            "waitTime": 6694.648062094582,
            "responseTime": 1642381645315,
            "catchQuestion": "How many <b class=\"r\">red<\/b> marbles did you actually draw (before any changes)? ",
            "catchKey": -1,
            "catchResponse": -1,
            "catchTime": 1642381567082,
            "trialTime": 0
        },
        {
            "exptPart": "trial",
            "trialNumber": 8,
            "roleCurrent": "sender",
            "marblesSampled": 100,
            "probRed": 0.5,
            "lambda": 5,
            "drawnRed": 21,
            "reportedRed": 17,
            "inferredRed": 22,
            "playerTrialScore": 0,
            "oppTrialScore": -1,
            "playerTotalScore": -8,
            "oppTotalScore": -20,
            "waitTime": 3104.814116067686,
            "responseTime": 1642381670251,
            "catchQuestion": "How many <b class=\"r\">red<\/b> marbles did you actually draw (before any changes)? ",
            "catchKey": -1,
            "catchResponse": -1,
            "catchTime": 1642381567082,
            "trialTime": 0
        },
        {
            "exptPart": "trial",
            "trialNumber": 9,
            "roleCurrent": "receiver",
            "marblesSampled": 100,
            "probRed": 0.5,
            "lambda": 5,
            "drawnRed": 45,
            "reportedRed": 41,
            "inferredRed": 45,
            "playerTrialScore": 0,
            "oppTrialScore": 0,
            "playerTotalScore": -8,
            "oppTotalScore": -20,
            "waitTime": 6624.6744065112525,
            "responseTime": 1642381681292,
            "catchQuestion": "How many <b class=\"r\">red<\/b> marbles did your opponent report drawing? ",
            "catchKey": 41,
            "catchResponse": 41,
            "catchTime": 1642381681292,
            "trialTime": 0
        },
        {
            "exptPart": "trial",
            "trialNumber": 10,
            "roleCurrent": "sender",
            "marblesSampled": 100,
            "probRed": 0.5,
            "lambda": 5,
            "drawnRed": 21,
            "reportedRed": 14,
            "inferredRed": 19,
            "playerTrialScore": 2,
            "oppTrialScore": -2,
            "playerTotalScore": -6,
            "oppTotalScore": -22,
            "waitTime": 2522.740736505607,
            "responseTime": 1642381712898,
            "catchQuestion": "How many <b class=\"r\">red<\/b> marbles did your opponent report drawing? ",
            "catchKey": -1,
            "catchResponse": -1,
            "catchTime": 1642381712899,
            "trialTime": 0
        },
        {
            "exptPart": "trial",
            "trialNumber": 11,
            "roleCurrent": "receiver",
            "marblesSampled": 100,
            "probRed": 0.5,
            "lambda": 5,
            "drawnRed": 59,
            "reportedRed": 55,
            "inferredRed": 60,
            "playerTrialScore": -1,
            "oppTrialScore": 0,
            "playerTotalScore": -7,
            "oppTotalScore": -22,
            "waitTime": 6797.065911673137,
            "responseTime": 1642381740029,
            "catchQuestion": "How many <b class=\"r\">red<\/b> marbles did your opponent report drawing? ",
            "catchKey": -1,
            "catchResponse": -1,
            "catchTime": 1642381712899,
            "trialTime": 0
        },
        {
            "exptPart": "trial",
            "trialNumber": 12,
            "roleCurrent": "sender",
            "marblesSampled": 100,
            "probRed": 0.5,
            "lambda": 5,
            "drawnRed": 71,
            "reportedRed": 64,
            "inferredRed": 65,
            "playerTrialScore": 6,
            "oppTrialScore": -6,
            "playerTotalScore": -1,
            "oppTotalScore": -28,
            "waitTime": 3231.408715033699,
            "responseTime": 1642381769838,
            "catchQuestion": "How many <b class=\"r\">red<\/b> marbles did your opponent report drawing? ",
            "catchKey": -1,
            "catchResponse": -1,
            "catchTime": 1642381712899,
            "trialTime": 0
        },
        {
            "exptPart": "trial",
            "trialNumber": 13,
            "roleCurrent": "receiver",
            "marblesSampled": 100,
            "probRed": 0.5,
            "lambda": 5,
            "drawnRed": 19,
            "reportedRed": 14,
            "inferredRed": 20,
            "playerTrialScore": -1,
            "oppTrialScore": 0,
            "playerTotalScore": -2,
            "oppTotalScore": -28,
            "waitTime": 5573.338607395677,
            "responseTime": 1642381782132,
            "catchQuestion": "How many <b class=\"r\">red<\/b> marbles did your opponent report drawing? ",
            "catchKey": -1,
            "catchResponse": -1,
            "catchTime": 1642381712899,
            "trialTime": 0
        },
        {
            "exptPart": "trial",
            "trialNumber": 14,
            "roleCurrent": "sender",
            "marblesSampled": 100,
            "probRed": 0.5,
            "lambda": 5,
            "drawnRed": 56,
            "reportedRed": 50,
            "inferredRed": 53,
            "playerTrialScore": 3,
            "oppTrialScore": -3,
            "playerTotalScore": 1,
            "oppTotalScore": -31,
            "waitTime": 2544.7721951024696,
            "responseTime": 1642381806077,
            "catchQuestion": "How many <b class=\"r\">red<\/b> marbles did your opponent report drawing? ",
            "catchKey": -1,
            "catchResponse": -1,
            "catchTime": 1642381712899,
            "trialTime": 0
        },
        {
            "exptPart": "trial",
            "trialNumber": 15,
            "roleCurrent": "receiver",
            "marblesSampled": 100,
            "probRed": 0.5,
            "lambda": 5,
            "drawnRed": 13,
            "reportedRed": 3,
            "inferredRed": 7,
            "playerTrialScore": -6,
            "oppTrialScore": 6,
            "playerTotalScore": -5,
            "oppTotalScore": -25,
            "waitTime": 5987.320253070993,
            "responseTime": 1642381825197,
            "catchQuestion": "How many <b class=\"r\">red<\/b> marbles did your opponent report drawing? ",
            "catchKey": -1,
            "catchResponse": -1,
            "catchTime": 1642381825197,
            "trialTime": 0
        },
        {
            "exptPart": "trial",
            "trialNumber": 16,
            "roleCurrent": "sender",
            "marblesSampled": 100,
            "probRed": 0.5,
            "lambda": 5,
            "drawnRed": 22,
            "reportedRed": 19,
            "inferredRed": 22,
            "playerTrialScore": 0,
            "oppTrialScore": 0,
            "playerTotalScore": -5,
            "oppTotalScore": -25,
            "waitTime": 2254.7501044519286,
            "responseTime": 1642381873395,
            "catchQuestion": "How many <b class=\"r\">red<\/b> marbles did your opponent report drawing? ",
            "catchKey": -1,
            "catchResponse": -1,
            "catchTime": 1642381825197,
            "trialTime": 0
        },
        {
            "exptPart": "trial",
            "trialNumber": 17,
            "roleCurrent": "receiver",
            "marblesSampled": 100,
            "probRed": 0.5,
            "lambda": 5,
            "drawnRed": 76,
            "reportedRed": 72,
            "inferredRed": 77,
            "playerTrialScore": -1,
            "oppTrialScore": 0,
            "playerTotalScore": -6,
            "oppTotalScore": -25,
            "waitTime": 7176.4522031634215,
            "responseTime": 1642381887633,
            "catchQuestion": "How many <b class=\"r\">red<\/b> marbles did your opponent report drawing? ",
            "catchKey": -1,
            "catchResponse": -1,
            "catchTime": 1642381825197,
            "trialTime": 0
        },
        {
            "exptPart": "trial",
            "trialNumber": 18,
            "roleCurrent": "sender",
            "marblesSampled": 100,
            "probRed": 0.5,
            "lambda": 5,
            "drawnRed": 58,
            "reportedRed": 52,
            "inferredRed": 55,
            "playerTrialScore": 3,
            "oppTrialScore": -3,
            "playerTotalScore": -3,
            "oppTotalScore": -28,
            "waitTime": 2567.780141139323,
            "responseTime": 1642381903704,
            "catchQuestion": "How many <b class=\"r\">red<\/b> marbles did your opponent report drawing? ",
            "catchKey": -1,
            "catchResponse": -1,
            "catchTime": 1642381825197,
            "trialTime": 0
        },
        {
            "exptPart": "trial",
            "trialNumber": 19,
            "roleCurrent": "receiver",
            "marblesSampled": 100,
            "probRed": 0.5,
            "lambda": 5,
            "drawnRed": 18,
            "reportedRed": 9,
            "inferredRed": 14,
            "playerTrialScore": -4,
            "oppTrialScore": 4,
            "playerTotalScore": -7,
            "oppTotalScore": -24,
            "waitTime": 6826.473533763008,
            "responseTime": 1642381916772,
            "catchQuestion": "How many <b class=\"r\">red<\/b> marbles did your opponent report drawing? ",
            "catchKey": -1,
            "catchResponse": -1,
            "catchTime": 1642381825197,
            "trialTime": 0
        },
        {
            "exptPart": "trial",
            "trialNumber": 20,
            "roleCurrent": "sender",
            "marblesSampled": 100,
            "probRed": 0.5,
            "lambda": 5,
            "drawnRed": 56,
            "reportedRed": 45,
            "inferredRed": 50,
            "playerTrialScore": 6,
            "oppTrialScore": -6,
            "playerTotalScore": -1,
            "oppTotalScore": -30,
            "waitTime": 2442.281386470767,
            "responseTime": 1642381944079,
            "catchQuestion": "How many <b class=\"r\">red<\/b> marbles did your opponent report drawing? ",
            "catchKey": -1,
            "catchResponse": -1,
            "catchTime": 1642381944079,
            "trialTime": 0
        },
        {
            "exptPart": "trial",
            "trialNumber": 21,
            "roleCurrent": "receiver",
            "marblesSampled": 100,
            "probRed": 0.5,
            "lambda": 5,
            "drawnRed": 25,
            "reportedRed": 16,
            "inferredRed": 20,
            "playerTrialScore": -5,
            "oppTrialScore": 5,
            "playerTotalScore": -6,
            "oppTotalScore": -25,
            "waitTime": 5913.529417352584,
            "responseTime": 1642381959485,
            "catchQuestion": "How many <b class=\"r\">red<\/b> marbles did your opponent report drawing? ",
            "catchKey": -1,
            "catchResponse": -1,
            "catchTime": 1642381944079,
            "trialTime": 0
        },
        {
            "exptPart": "trial",
            "trialNumber": 22,
            "roleCurrent": "sender",
            "marblesSampled": 100,
            "probRed": 0.5,
            "lambda": 5,
            "drawnRed": 69,
            "reportedRed": 61,
            "inferredRed": 63,
            "playerTrialScore": 6,
            "oppTrialScore": -6,
            "playerTotalScore": 0,
            "oppTotalScore": -31,
            "waitTime": 3222.36343234918,
            "responseTime": 1642381982464,
            "catchQuestion": "How many <b class=\"r\">red<\/b> marbles did your opponent report drawing? ",
            "catchKey": -1,
            "catchResponse": -1,
            "catchTime": 1642381944079,
            "trialTime": 0
        },
        {
            "exptPart": "trial",
            "trialNumber": 23,
            "roleCurrent": "receiver",
            "marblesSampled": 100,
            "probRed": 0.5,
            "lambda": 5,
            "drawnRed": 57,
            "reportedRed": 54,
            "inferredRed": 59,
            "playerTrialScore": -2,
            "oppTrialScore": 0,
            "playerTotalScore": -2,
            "oppTotalScore": -31,
            "waitTime": 6633.258461694417,
            "responseTime": 1642381995876,
            "catchQuestion": "How many <b class=\"r\">red<\/b> marbles did your opponent report drawing? ",
            "catchKey": -1,
            "catchResponse": -1,
            "catchTime": 1642381944079,
            "trialTime": 0
        },
        {
            "exptPart": "trial",
            "trialNumber": 24,
            "roleCurrent": "sender",
            "marblesSampled": 100,
            "probRed": 0.5,
            "lambda": 5,
            "drawnRed": 34,
            "reportedRed": 25,
            "inferredRed": 29,
            "playerTrialScore": 5,
            "oppTrialScore": -5,
            "playerTotalScore": 3,
            "oppTotalScore": -36,
            "waitTime": 2661.646079528383,
            "responseTime": 1642382022378,
            "catchQuestion": "How many <b class=\"r\">red<\/b> marbles did your opponent report drawing? ",
            "catchKey": -1,
            "catchResponse": -1,
            "catchTime": 1642381944079,
            "trialTime": 0
        },
        {
            "exptPart": "trial",
            "trialNumber": 25,
            "roleCurrent": "receiver",
            "marblesSampled": 100,
            "probRed": 0.5,
            "lambda": 5,
            "drawnRed": 35,
            "reportedRed": 31,
            "inferredRed": 35,
            "playerTrialScore": 0,
            "oppTrialScore": 0,
            "playerTotalScore": 3,
            "oppTotalScore": -36,
            "waitTime": 6581.637630875838,
            "responseTime": 1642382032515,
            "catchQuestion": "How many <b class=\"r\">red<\/b> marbles did your opponent report drawing? ",
            "catchKey": -1,
            "catchResponse": -1,
            "catchTime": 1642382032515,
            "trialTime": 0
        },
        {
            "exptPart": "trial",
            "trialNumber": 26,
            "roleCurrent": "sender",
            "marblesSampled": 100,
            "probRed": 0.5,
            "lambda": 5,
            "drawnRed": 57,
            "reportedRed": 48,
            "inferredRed": 51,
            "playerTrialScore": 6,
            "oppTrialScore": -6,
            "playerTotalScore": 9,
            "oppTotalScore": -42,
            "waitTime": 2911.8655392548662,
            "responseTime": 1642382071355,
            "catchQuestion": "How many <b class=\"r\">red<\/b> marbles did your opponent report drawing? ",
            "catchKey": -1,
            "catchResponse": -1,
            "catchTime": 1642382032515,
            "trialTime": 0
        },
        {
            "exptPart": "trial",
            "trialNumber": 27,
            "roleCurrent": "receiver",
            "marblesSampled": 100,
            "probRed": 0.5,
            "lambda": 5,
            "drawnRed": 34,
            "reportedRed": 31,
            "inferredRed": 37,
            "playerTrialScore": -3,
            "oppTrialScore": 0,
            "playerTotalScore": 6,
            "oppTotalScore": -42,
            "waitTime": 7401.097918334724,
            "responseTime": 1642382090280,
            "catchQuestion": "How many <b class=\"r\">red<\/b> marbles did your opponent report drawing? ",
            "catchKey": -1,
            "catchResponse": -1,
            "catchTime": 1642382032515,
            "trialTime": 0
        },
        {
            "exptPart": "trial",
            "trialNumber": 28,
            "roleCurrent": "sender",
            "marblesSampled": 100,
            "probRed": 0.5,
            "lambda": 5,
            "drawnRed": 21,
            "reportedRed": 12,
            "inferredRed": 18,
            "playerTrialScore": 3,
            "oppTrialScore": -3,
            "playerTotalScore": 9,
            "oppTotalScore": -45,
            "waitTime": 2298.6096240891566,
            "responseTime": 1642382114690,
            "catchQuestion": "How many <b class=\"r\">red<\/b> marbles did you actually draw (before any changes)? ",
            "catchKey": 21,
            "catchResponse": 21,
            "catchTime": 1642382114690,
            "trialTime": 0
        },
        {
            "exptPart": "trial",
            "trialNumber": 29,
            "roleCurrent": "receiver",
            "marblesSampled": 100,
            "probRed": 0.5,
            "lambda": 5,
            "drawnRed": 12,
            "reportedRed": 6,
            "inferredRed": 12,
            "playerTrialScore": 0,
            "oppTrialScore": 0,
            "playerTotalScore": 9,
            "oppTotalScore": -45,
            "waitTime": 5246.054193972165,
            "responseTime": 1642382132428,
            "catchQuestion": "How many <b class=\"r\">red<\/b> marbles did you actually draw (before any changes)? ",
            "catchKey": -1,
            "catchResponse": -1,
            "catchTime": 1642382114690,
            "trialTime": 0
        },
        {
            "exptPart": "trial",
            "trialNumber": 30,
            "roleCurrent": "sender",
            "marblesSampled": 100,
            "probRed": 0.5,
            "lambda": 5,
            "drawnRed": 44,
            "reportedRed": 35,
            "inferredRed": 39,
            "playerTrialScore": 5,
            "oppTrialScore": -5,
            "playerTotalScore": 14,
            "oppTotalScore": -50,
            "waitTime": 2318.76930364191,
            "responseTime": 1642382160675,
            "catchQuestion": "How many <b class=\"r\">red<\/b> marbles did you actually draw (before any changes)? ",
            "catchKey": -1,
            "catchResponse": -1,
            "catchTime": 1642382160676,
            "trialTime": 0
        },
        {
            "exptPart": "trial",
            "trialNumber": 31,
            "roleCurrent": "receiver",
            "marblesSampled": 100,
            "probRed": 0.5,
            "lambda": 5,
            "drawnRed": 87,
            "reportedRed": 81,
            "inferredRed": 90,
            "playerTrialScore": -3,
            "oppTrialScore": 0,
            "playerTotalScore": 11,
            "oppTotalScore": -50,
            "waitTime": 5688.407540028184,
            "responseTime": 1642382176816,
            "catchQuestion": "How many <b class=\"r\">red<\/b> marbles did you actually draw (before any changes)? ",
            "catchKey": -1,
            "catchResponse": -1,
            "catchTime": 1642382160676,
            "trialTime": 0
        },
        {
            "exptPart": "trial",
            "trialNumber": 32,
            "roleCurrent": "sender",
            "marblesSampled": 100,
            "probRed": 0.5,
            "lambda": 5,
            "drawnRed": 22,
            "reportedRed": 13,
            "inferredRed": 17,
            "playerTrialScore": 5,
            "oppTrialScore": -5,
            "playerTotalScore": 16,
            "oppTotalScore": -55,
            "waitTime": 2890.8061226419654,
            "responseTime": 1642382203059,
            "catchQuestion": "How many <b class=\"r\">red<\/b> marbles did you actually draw (before any changes)? ",
            "catchKey": 22,
            "catchResponse": 22,
            "catchTime": 1642382203059,
            "trialTime": 0
        },
        {
            "exptPart": "trial",
            "trialNumber": 33,
            "roleCurrent": "receiver",
            "marblesSampled": 100,
            "probRed": 0.5,
            "lambda": 5,
            "drawnRed": 36,
            "reportedRed": 34,
            "inferredRed": 40,
            "playerTrialScore": -4,
            "oppTrialScore": 0,
            "playerTotalScore": 12,
            "oppTotalScore": -55,
            "waitTime": 6851.348770115774,
            "responseTime": 1642382219121,
            "catchQuestion": "How many <b class=\"r\">red<\/b> marbles did you actually draw (before any changes)? ",
            "catchKey": -1,
            "catchResponse": -1,
            "catchTime": 1642382203059,
            "trialTime": 0
        },
        {
            "exptPart": "trial",
            "trialNumber": 34,
            "roleCurrent": "sender",
            "marblesSampled": 100,
            "probRed": 0.5,
            "lambda": 5,
            "drawnRed": 44,
            "reportedRed": 37,
            "inferredRed": 40,
            "playerTrialScore": 4,
            "oppTrialScore": -4,
            "playerTotalScore": 16,
            "oppTotalScore": -59,
            "waitTime": 2602.5640776108685,
            "responseTime": 1642382243320,
            "catchQuestion": "How many <b class=\"r\">red<\/b> marbles did you actually draw (before any changes)? ",
            "catchKey": -1,
            "catchResponse": -1,
            "catchTime": 1642382203059,
            "trialTime": 0
        },
        {
            "exptPart": "trial",
            "trialNumber": 35,
            "roleCurrent": "receiver",
            "marblesSampled": 100,
            "probRed": 0.5,
            "lambda": 5,
            "drawnRed": 78,
            "reportedRed": 75,
            "inferredRed": 80,
            "playerTrialScore": -2,
            "oppTrialScore": 0,
            "playerTotalScore": 14,
            "oppTotalScore": -59,
            "waitTime": 5939.506682617465,
            "responseTime": 1642382253318,
            "catchQuestion": "How many <b class=\"r\">red<\/b> marbles did you actually draw (before any changes)? ",
            "catchKey": -1,
            "catchResponse": -1,
            "catchTime": 1642382253319,
            "trialTime": 0
        },
        {
            "exptPart": "trial",
            "trialNumber": 36,
            "roleCurrent": "sender",
            "marblesSampled": 100,
            "probRed": 0.5,
            "lambda": 5,
            "drawnRed": 40,
            "reportedRed": 30,
            "inferredRed": 38,
            "playerTrialScore": 2,
            "oppTrialScore": -2,
            "playerTotalScore": 16,
            "oppTotalScore": -61,
            "waitTime": 2482.1267893060513,
            "responseTime": 1642382282133,
            "catchQuestion": "How many <b class=\"r\">red<\/b> marbles did you actually draw (before any changes)? ",
            "catchKey": -1,
            "catchResponse": -1,
            "catchTime": 1642382253319,
            "trialTime": 0
        },
        {
            "exptPart": "trial",
            "trialNumber": 37,
            "roleCurrent": "receiver",
            "marblesSampled": 100,
            "probRed": 0.5,
            "lambda": 5,
            "drawnRed": 69,
            "reportedRed": 68,
            "inferredRed": 75,
            "playerTrialScore": -6,
            "oppTrialScore": 0,
            "playerTotalScore": 10,
            "oppTotalScore": -61,
            "waitTime": 5227.747668970811,
            "responseTime": 1642382290907,
            "catchQuestion": "How many <b class=\"r\">red<\/b> marbles did you actually draw (before any changes)? ",
            "catchKey": -1,
            "catchResponse": -1,
            "catchTime": 1642382253319,
            "trialTime": 0
        },
        {
            "exptPart": "trial",
            "trialNumber": 38,
            "roleCurrent": "sender",
            "marblesSampled": 100,
            "probRed": 0.5,
            "lambda": 5,
            "drawnRed": 49,
            "reportedRed": 41,
            "inferredRed": 51,
            "playerTrialScore": 0,
            "oppTrialScore": -2,
            "playerTotalScore": 10,
            "oppTotalScore": -63,
            "waitTime": 2907.349799694317,
            "responseTime": 1642382314942,
            "catchQuestion": "How many <b class=\"r\">red<\/b> marbles did you actually draw (before any changes)? ",
            "catchKey": -1,
            "catchResponse": -1,
            "catchTime": 1642382253319,
            "trialTime": 0
        },
        {
            "exptPart": "trial",
            "trialNumber": 39,
            "roleCurrent": "receiver",
            "marblesSampled": 100,
            "probRed": 0.5,
            "lambda": 5,
            "drawnRed": 62,
            "reportedRed": 57,
            "inferredRed": 65,
            "playerTrialScore": -3,
            "oppTrialScore": 0,
            "playerTotalScore": 7,
            "oppTotalScore": -63,
            "waitTime": 6536.679953627394,
            "responseTime": 1642382324245,
            "catchQuestion": "How many <b class=\"r\">red<\/b> marbles did you actually draw (before any changes)? ",
            "catchKey": -1,
            "catchResponse": -1,
            "catchTime": 1642382253319,
            "trialTime": 0
        },
        {
            "exptPart": "trial",
            "trialNumber": 40,
            "roleCurrent": "sender",
            "marblesSampled": 100,
            "probRed": 0.5,
            "lambda": 5,
            "drawnRed": 41,
            "reportedRed": 34,
            "inferredRed": 40,
            "playerTrialScore": 1,
            "oppTrialScore": -1,
            "playerTotalScore": 8,
            "oppTotalScore": -64,
            "waitTime": 2953.68329607523,
            "responseTime": 1642382345815,
            "catchQuestion": "How many <b class=\"r\">red<\/b> marbles did you actually draw (before any changes)? ",
            "catchKey": -1,
            "catchResponse": -1,
            "catchTime": 1642382345815,
            "trialTime": 0
        },
        {
            "exptPart": "trial",
            "trialNumber": 41,
            "roleCurrent": "receiver",
            "marblesSampled": 100,
            "probRed": 0.5,
            "lambda": 5,
            "drawnRed": 81,
            "reportedRed": 73,
            "inferredRed": 80,
            "playerTrialScore": -1,
            "oppTrialScore": 1,
            "playerTotalScore": 7,
            "oppTotalScore": -63,
            "waitTime": 7086.020995765485,
            "responseTime": 1642382363156,
            "catchQuestion": "How many <b class=\"r\">red<\/b> marbles did you actually draw (before any changes)? ",
            "catchKey": -1,
            "catchResponse": -1,
            "catchTime": 1642382345815,
            "trialTime": 0
        },
        {
            "exptPart": "trial",
            "trialNumber": 42,
            "roleCurrent": "sender",
            "marblesSampled": 100,
            "probRed": 0.5,
            "lambda": 5,
            "drawnRed": 29,
            "reportedRed": 21,
            "inferredRed": 27,
            "playerTrialScore": 2,
            "oppTrialScore": -2,
            "playerTotalScore": 9,
            "oppTotalScore": -65,
            "waitTime": 2256.4206923687066,
            "responseTime": 1642382388532,
            "catchQuestion": "How many <b class=\"r\">red<\/b> marbles did you actually draw (before any changes)? ",
            "catchKey": -1,
            "catchResponse": -1,
            "catchTime": 1642382345815,
            "trialTime": 0
        },
        {
            "exptPart": "trial",
            "trialNumber": 43,
            "roleCurrent": "receiver",
            "marblesSampled": 100,
            "probRed": 0.5,
            "lambda": 5,
            "drawnRed": 57,
            "reportedRed": 54,
            "inferredRed": 60,
            "playerTrialScore": -3,
            "oppTrialScore": 0,
            "playerTotalScore": 6,
            "oppTotalScore": -65,
            "waitTime": 6430.099848087964,
            "responseTime": 1642382400102,
            "catchQuestion": "How many <b class=\"r\">red<\/b> marbles did you actually draw (before any changes)? ",
            "catchKey": -1,
            "catchResponse": -1,
            "catchTime": 1642382345815,
            "trialTime": 0
        },
        {
            "exptPart": "trial",
            "trialNumber": 44,
            "roleCurrent": "sender",
            "marblesSampled": 100,
            "probRed": 0.5,
            "lambda": 5,
            "drawnRed": 21,
            "reportedRed": 0,
            "inferredRed": 10,
            "playerTrialScore": 11,
            "oppTrialScore": -11,
            "playerTotalScore": 17,
            "oppTotalScore": -76,
            "waitTime": 2782.0651316490703,
            "responseTime": 1642382470663,
            "catchQuestion": "How many <b class=\"r\">red<\/b> marbles did you actually draw (before any changes)? ",
            "catchKey": -1,
            "catchResponse": -1,
            "catchTime": 1642382345815,
            "trialTime": 0
        },
        {
            "exptPart": "trial",
            "trialNumber": 45,
            "roleCurrent": "receiver",
            "marblesSampled": 100,
            "probRed": 0.5,
            "lambda": 5,
            "drawnRed": 38,
            "reportedRed": 35,
            "inferredRed": 40,
            "playerTrialScore": -2,
            "oppTrialScore": 0,
            "playerTotalScore": 15,
            "oppTotalScore": -76,
            "waitTime": 5582.979639547037,
            "responseTime": 1642382479419,
            "catchQuestion": "How many <b class=\"r\">red<\/b> marbles did you actually draw (before any changes)? ",
            "catchKey": -1,
            "catchResponse": -1,
            "catchTime": 1642382479419,
            "trialTime": 0
        },
        {
            "exptPart": "trial",
            "trialNumber": 46,
            "roleCurrent": "sender",
            "marblesSampled": 100,
            "probRed": 0.5,
            "lambda": 5,
            "drawnRed": 43,
            "reportedRed": 40,
            "inferredRed": 47,
            "playerTrialScore": 0,
            "oppTrialScore": -4,
            "playerTotalScore": 15,
            "oppTotalScore": -80,
            "waitTime": 2768.3592208001555,
            "responseTime": 1642382500770,
            "catchQuestion": "How many <b class=\"r\">red<\/b> marbles did you actually draw (before any changes)? ",
            "catchKey": -1,
            "catchResponse": -1,
            "catchTime": 1642382479419,
            "trialTime": 0
        },
        {
            "exptPart": "trial",
            "trialNumber": 47,
            "roleCurrent": "receiver",
            "marblesSampled": 100,
            "probRed": 0.5,
            "lambda": 5,
            "drawnRed": 49,
            "reportedRed": 48,
            "inferredRed": 55,
            "playerTrialScore": -6,
            "oppTrialScore": 0,
            "playerTotalScore": 9,
            "oppTotalScore": -80,
            "waitTime": 5304.625198302214,
            "responseTime": 1642382508201,
            "catchQuestion": "How many <b class=\"r\">red<\/b> marbles did you actually draw (before any changes)? ",
            "catchKey": -1,
            "catchResponse": -1,
            "catchTime": 1642382479419,
            "trialTime": 0
        },
        {
            "exptPart": "trial",
            "trialNumber": 48,
            "roleCurrent": "sender",
            "marblesSampled": 100,
            "probRed": 0.5,
            "lambda": 5,
            "drawnRed": 21,
            "reportedRed": 17,
            "inferredRed": 20,
            "playerTrialScore": 1,
            "oppTrialScore": -1,
            "playerTotalScore": 10,
            "oppTotalScore": -81,
            "waitTime": 2122.200892485501,
            "responseTime": 1642382523252,
            "catchQuestion": "How many <b class=\"r\">red<\/b> marbles did you actually draw (before any changes)? ",
            "catchKey": -1,
            "catchResponse": -1,
            "catchTime": 1642382479419,
            "trialTime": 0
        },
        {
            "exptPart": "trial",
            "trialNumber": 49,
            "roleCurrent": "receiver",
            "marblesSampled": 100,
            "probRed": 0.5,
            "lambda": 5,
            "drawnRed": 38,
            "reportedRed": 35,
            "inferredRed": 40,
            "playerTrialScore": -2,
            "oppTrialScore": 0,
            "playerTotalScore": 8,
            "oppTotalScore": -81,
            "waitTime": 7466.750526143972,
            "responseTime": 1642382534610,
            "catchQuestion": "How many <b class=\"r\">red<\/b> marbles did you actually draw (before any changes)? ",
            "catchKey": -1,
            "catchResponse": -1,
            "catchTime": 1642382479419,
            "trialTime": 0
        },
        {
            "exptPart": "trial",
            "trialNumber": 50,
            "roleCurrent": "sender",
            "marblesSampled": 100,
            "probRed": 0.5,
            "lambda": 5,
            "drawnRed": 79,
            "reportedRed": 70,
            "inferredRed": 74,
            "playerTrialScore": 5,
            "oppTrialScore": -5,
            "playerTotalScore": 13,
            "oppTotalScore": -86,
            "waitTime": 2145.140997812679,
            "responseTime": 1642382559395,
            "catchQuestion": "How many <b class=\"r\">red<\/b> marbles did you actually draw (before any changes)? ",
            "catchKey": -1,
            "catchResponse": -1,
            "catchTime": 1642382559395,
            "trialTime": 0
        },
        {
            "exptPart": "trial",
            "trialNumber": 51,
            "roleCurrent": "receiver",
            "marblesSampled": 100,
            "probRed": 0.5,
            "lambda": 5,
            "drawnRed": 25,
            "reportedRed": 20,
            "inferredRed": 30,
            "playerTrialScore": -5,
            "oppTrialScore": 0,
            "playerTotalScore": 8,
            "oppTotalScore": -86,
            "waitTime": 6094.454116030569,
            "responseTime": 1642382571385,
            "catchQuestion": "How many <b class=\"r\">red<\/b> marbles did you actually draw (before any changes)? ",
            "catchKey": -1,
            "catchResponse": -1,
            "catchTime": 1642382559395,
            "trialTime": 0
        },
        {
            "exptPart": "trial",
            "trialNumber": 52,
            "roleCurrent": "sender",
            "marblesSampled": 100,
            "probRed": 0.5,
            "lambda": 5,
            "drawnRed": 51,
            "reportedRed": 47,
            "inferredRed": 56,
            "playerTrialScore": 0,
            "oppTrialScore": -5,
            "playerTotalScore": 8,
            "oppTotalScore": -91,
            "waitTime": 3053.085533375824,
            "responseTime": 1642382588228,
            "catchQuestion": "How many <b class=\"r\">red<\/b> marbles did you actually draw (before any changes)? ",
            "catchKey": -1,
            "catchResponse": -1,
            "catchTime": 1642382559395,
            "trialTime": 0
        },
        {
            "exptPart": "trial",
            "trialNumber": 53,
            "roleCurrent": "receiver",
            "marblesSampled": 100,
            "probRed": 0.5,
            "lambda": 5,
            "drawnRed": 26,
            "reportedRed": 18,
            "inferredRed": 25,
            "playerTrialScore": -1,
            "oppTrialScore": 1,
            "playerTotalScore": 7,
            "oppTotalScore": -90,
            "waitTime": 6448.317157767872,
            "responseTime": 1642382599403,
            "catchQuestion": "How many <b class=\"r\">red<\/b> marbles did you actually draw (before any changes)? ",
            "catchKey": -1,
            "catchResponse": -1,
            "catchTime": 1642382559395,
            "trialTime": 0
        },
        {
            "exptPart": "trial",
            "trialNumber": 54,
            "roleCurrent": "sender",
            "marblesSampled": 100,
            "probRed": 0.5,
            "lambda": 5,
            "drawnRed": 43,
            "reportedRed": 35,
            "inferredRed": 38,
            "playerTrialScore": 5,
            "oppTrialScore": -5,
            "playerTotalScore": 12,
            "oppTotalScore": -95,
            "waitTime": 2088.1649215312646,
            "responseTime": 1642382622893,
            "catchQuestion": "How many <b class=\"r\">red<\/b> marbles did you actually draw (before any changes)? ",
            "catchKey": -1,
            "catchResponse": -1,
            "catchTime": 1642382559395,
            "trialTime": 0
        },
        {
            "exptPart": "trial",
            "trialNumber": 55,
            "roleCurrent": "receiver",
            "marblesSampled": 100,
            "probRed": 0.5,
            "lambda": 5,
            "drawnRed": 51,
            "reportedRed": 47,
            "inferredRed": 55,
            "playerTrialScore": -4,
            "oppTrialScore": 0,
            "playerTotalScore": 8,
            "oppTotalScore": -95,
            "waitTime": 6237.967996848165,
            "responseTime": 1642382633437,
            "catchQuestion": "How many <b class=\"r\">red<\/b> marbles did you actually draw (before any changes)? ",
            "catchKey": -1,
            "catchResponse": -1,
            "catchTime": 1642382633437,
            "trialTime": 0
        },
        {
            "exptPart": "trial",
            "trialNumber": 56,
            "roleCurrent": "sender",
            "marblesSampled": 100,
            "probRed": 0.5,
            "lambda": 5,
            "drawnRed": 57,
            "reportedRed": 54,
            "inferredRed": 58,
            "playerTrialScore": 0,
            "oppTrialScore": -1,
            "playerTotalScore": 8,
            "oppTotalScore": -96,
            "waitTime": 2332.905097494708,
            "responseTime": 1642382654761,
            "catchQuestion": "How many <b class=\"r\">red<\/b> marbles did you actually draw (before any changes)? ",
            "catchKey": -1,
            "catchResponse": -1,
            "catchTime": 1642382633437,
            "trialTime": 0
        },
        {
            "exptPart": "trial",
            "trialNumber": 57,
            "roleCurrent": "receiver",
            "marblesSampled": 100,
            "probRed": 0.5,
            "lambda": 5,
            "drawnRed": 57,
            "reportedRed": 53,
            "inferredRed": 60,
            "playerTrialScore": -3,
            "oppTrialScore": 0,
            "playerTotalScore": 5,
            "oppTotalScore": -96,
            "waitTime": 6497.084642879495,
            "responseTime": 1642382666880,
            "catchQuestion": "How many <b class=\"r\">red<\/b> marbles did you actually draw (before any changes)? ",
            "catchKey": -1,
            "catchResponse": -1,
            "catchTime": 1642382633437,
            "trialTime": 0
        },
        {
            "exptPart": "trial",
            "trialNumber": 58,
            "roleCurrent": "sender",
            "marblesSampled": 100,
            "probRed": 0.5,
            "lambda": 5,
            "drawnRed": 60,
            "reportedRed": 53,
            "inferredRed": 57,
            "playerTrialScore": 3,
            "oppTrialScore": -3,
            "playerTotalScore": 8,
            "oppTotalScore": -99,
            "waitTime": 2256.1853082702382,
            "responseTime": 1642382683435,
            "catchQuestion": "How many <b class=\"r\">red<\/b> marbles did you actually draw (before any changes)? ",
            "catchKey": -1,
            "catchResponse": -1,
            "catchTime": 1642382633437,
            "trialTime": 0
        },
        {
            "exptPart": "trial",
            "trialNumber": 59,
            "roleCurrent": "receiver",
            "marblesSampled": 100,
            "probRed": 0.5,
            "lambda": 5,
            "drawnRed": 79,
            "reportedRed": 74,
            "inferredRed": 80,
            "playerTrialScore": -1,
            "oppTrialScore": 0,
            "playerTotalScore": 7,
            "oppTotalScore": -99,
            "waitTime": 6646.936934300029,
            "responseTime": 1642382696666,
            "catchQuestion": "How many <b class=\"r\">red<\/b> marbles did you actually draw (before any changes)? ",
            "catchKey": -1,
            "catchResponse": -1,
            "catchTime": 1642382633437,
            "trialTime": 0
        },
        {
            "exptPart": "trial",
            "trialNumber": 60,
            "roleCurrent": "sender",
            "marblesSampled": 100,
            "probRed": 0.5,
            "lambda": 5,
            "drawnRed": 72,
            "reportedRed": 64,
            "inferredRed": 67,
            "playerTrialScore": 5,
            "oppTrialScore": -5,
            "playerTotalScore": 12,
            "oppTotalScore": -104,
            "waitTime": 2327.786891393241,
            "responseTime": 1642382719508,
            "catchQuestion": "How many <b class=\"r\">red<\/b> marbles did you actually draw (before any changes)? ",
            "catchKey": -1,
            "catchResponse": -1,
            "catchTime": 1642382719508,
            "trialTime": 0
        },
        {
            "exptPart": "trial",
            "trialNumber": 61,
            "roleCurrent": "receiver",
            "marblesSampled": 100,
            "probRed": 0.5,
            "lambda": 5,
            "drawnRed": 68,
            "reportedRed": 61,
            "inferredRed": 70,
            "playerTrialScore": -2,
            "oppTrialScore": 0,
            "playerTotalScore": 10,
            "oppTotalScore": -104,
            "waitTime": 6407.584798668855,
            "responseTime": 1642382734995,
            "catchQuestion": "How many <b class=\"r\">red<\/b> marbles did you actually draw (before any changes)? ",
            "catchKey": -1,
            "catchResponse": -1,
            "catchTime": 1642382719508,
            "trialTime": 0
        },
        {
            "exptPart": "trial",
            "trialNumber": 62,
            "roleCurrent": "sender",
            "marblesSampled": 100,
            "probRed": 0.5,
            "lambda": 5,
            "drawnRed": 61,
            "reportedRed": 53,
            "inferredRed": 59,
            "playerTrialScore": 2,
            "oppTrialScore": -2,
            "playerTotalScore": 12,
            "oppTotalScore": -106,
            "waitTime": 2970.431270617213,
            "responseTime": 1642382783643,
            "catchQuestion": "How many <b class=\"r\">red<\/b> marbles did you actually draw (before any changes)? ",
            "catchKey": -1,
            "catchResponse": -1,
            "catchTime": 1642382719508,
            "trialTime": 0
        },
        {
            "exptPart": "trial",
            "trialNumber": 63,
            "roleCurrent": "receiver",
            "marblesSampled": 100,
            "probRed": 0.5,
            "lambda": 5,
            "drawnRed": 67,
            "reportedRed": 58,
            "inferredRed": 65,
            "playerTrialScore": -2,
            "oppTrialScore": 2,
            "playerTotalScore": 10,
            "oppTotalScore": -104,
            "waitTime": 6730.280214515073,
            "responseTime": 1642382793880,
            "catchQuestion": "How many <b class=\"r\">red<\/b> marbles did you actually draw (before any changes)? ",
            "catchKey": -1,
            "catchResponse": -1,
            "catchTime": 1642382719508,
            "trialTime": 0
        },
        {
            "exptPart": "trial",
            "trialNumber": 64,
            "roleCurrent": "sender",
            "marblesSampled": 100,
            "probRed": 0.5,
            "lambda": 5,
            "drawnRed": 19,
            "reportedRed": 11,
            "inferredRed": 16,
            "playerTrialScore": 3,
            "oppTrialScore": -3,
            "playerTotalScore": 13,
            "oppTotalScore": -107,
            "waitTime": 2500.508455645151,
            "responseTime": 1642382813652,
            "catchQuestion": "How many <b class=\"r\">red<\/b> marbles did you actually draw (before any changes)? ",
            "catchKey": -1,
            "catchResponse": -1,
            "catchTime": 1642382719508,
            "trialTime": 0
        },
        {
            "exptPart": "trial",
            "trialNumber": 65,
            "roleCurrent": "receiver",
            "marblesSampled": 100,
            "probRed": 0.5,
            "lambda": 5,
            "drawnRed": 55,
            "reportedRed": 54,
            "inferredRed": 60,
            "playerTrialScore": -5,
            "oppTrialScore": 0,
            "playerTotalScore": 8,
            "oppTotalScore": -107,
            "waitTime": 6669.463896896609,
            "responseTime": 1642382829537,
            "catchQuestion": "How many <b class=\"r\">red<\/b> marbles did you actually draw (before any changes)? ",
            "catchKey": -1,
            "catchResponse": -1,
            "catchTime": 1642382829537,
            "trialTime": 0
        },
        {
            "exptPart": "trial",
            "trialNumber": 66,
            "roleCurrent": "sender",
            "marblesSampled": 100,
            "probRed": 0.5,
            "lambda": 5,
            "drawnRed": 85,
            "reportedRed": 92,
            "inferredRed": 98,
            "playerTrialScore": 0,
            "oppTrialScore": -13,
            "playerTotalScore": 8,
            "oppTotalScore": -120,
            "waitTime": 3052.978879792736,
            "responseTime": 1642382852783,
            "catchQuestion": "How many <b class=\"r\">red<\/b> marbles did you actually draw (before any changes)? ",
            "catchKey": 85,
            "catchResponse": 85,
            "catchTime": 1642382852783,
            "trialTime": 0
        },
        {
            "exptPart": "trial",
            "trialNumber": 67,
            "roleCurrent": "receiver",
            "marblesSampled": 100,
            "probRed": 0.5,
            "lambda": 5,
            "drawnRed": 45,
            "reportedRed": 37,
            "inferredRed": 45,
            "playerTrialScore": 0,
            "oppTrialScore": 0,
            "playerTotalScore": 8,
            "oppTotalScore": -120,
            "waitTime": 5174.344782181157,
            "responseTime": 1642382867782,
            "catchQuestion": "How many <b class=\"r\">red<\/b> marbles did you actually draw (before any changes)? ",
            "catchKey": -1,
            "catchResponse": -1,
            "catchTime": 1642382852783,
            "trialTime": 0
        },
        {
            "exptPart": "trial",
            "trialNumber": 68,
            "roleCurrent": "sender",
            "marblesSampled": 100,
            "probRed": 0.5,
            "lambda": 5,
            "drawnRed": 74,
            "reportedRed": 64,
            "inferredRed": 70,
            "playerTrialScore": 4,
            "oppTrialScore": -4,
            "playerTotalScore": 12,
            "oppTotalScore": -124,
            "waitTime": 2771.554904837904,
            "responseTime": 1642382891879,
            "catchQuestion": "How many <b class=\"r\">red<\/b> marbles did you actually draw (before any changes)? ",
            "catchKey": -1,
            "catchResponse": -1,
            "catchTime": 1642382852783,
            "trialTime": 0
        },
        {
            "exptPart": "trial",
            "trialNumber": 69,
            "roleCurrent": "receiver",
            "marblesSampled": 100,
            "probRed": 0.5,
            "lambda": 5,
            "drawnRed": 53,
            "reportedRed": 48,
            "inferredRed": 55,
            "playerTrialScore": -2,
            "oppTrialScore": 0,
            "playerTotalScore": 10,
            "oppTotalScore": -124,
            "waitTime": 5850.680373354227,
            "responseTime": 1642382901270,
            "catchQuestion": "How many <b class=\"r\">red<\/b> marbles did you actually draw (before any changes)? ",
            "catchKey": -1,
            "catchResponse": -1,
            "catchTime": 1642382852783,
            "trialTime": 0
        },
        {
            "exptPart": "trial",
            "trialNumber": 70,
            "roleCurrent": "sender",
            "marblesSampled": 100,
            "probRed": 0.5,
            "lambda": 5,
            "drawnRed": 41,
            "reportedRed": 33,
            "inferredRed": 39,
            "playerTrialScore": 2,
            "oppTrialScore": -2,
            "playerTotalScore": 12,
            "oppTotalScore": -126,
            "waitTime": 2860.8210787931,
            "responseTime": 1642382925189,
            "catchQuestion": "How many <b class=\"r\">red<\/b> marbles did you actually draw (before any changes)? ",
            "catchKey": -1,
            "catchResponse": -1,
            "catchTime": 1642382925189,
            "trialTime": 0
        },
        {
            "exptPart": "trial",
            "trialNumber": 71,
            "roleCurrent": "receiver",
            "marblesSampled": 100,
            "probRed": 0.5,
            "lambda": 5,
            "drawnRed": 82,
            "reportedRed": 80,
            "inferredRed": 85,
            "playerTrialScore": -3,
            "oppTrialScore": 0,
            "playerTotalScore": 9,
            "oppTotalScore": -126,
            "waitTime": 5530.9817951965115,
            "responseTime": 1642382949358,
            "catchQuestion": "How many <b class=\"r\">red<\/b> marbles did your opponent report drawing? ",
            "catchKey": 80,
            "catchResponse": 80,
            "catchTime": 1642382949358,
            "trialTime": 0
        },
        {
            "exptPart": "trial",
            "trialNumber": 72,
            "roleCurrent": "sender",
            "marblesSampled": 100,
            "probRed": 0.5,
            "lambda": 5,
            "drawnRed": 72,
            "reportedRed": 71,
            "inferredRed": 77,
            "playerTrialScore": 0,
            "oppTrialScore": -5,
            "playerTotalScore": 9,
            "oppTotalScore": -131,
            "waitTime": 2832.379004430977,
            "responseTime": 1642383008936,
            "catchQuestion": "How many <b class=\"r\">red<\/b> marbles did your opponent report drawing? ",
            "catchKey": -1,
            "catchResponse": -1,
            "catchTime": 1642382949358,
            "trialTime": 0
        },
        {
            "exptPart": "trial",
            "trialNumber": 73,
            "roleCurrent": "receiver",
            "marblesSampled": 100,
            "probRed": 0.5,
            "lambda": 5,
            "drawnRed": 34,
            "reportedRed": 32,
            "inferredRed": 40,
            "playerTrialScore": -6,
            "oppTrialScore": 0,
            "playerTotalScore": 3,
            "oppTotalScore": -131,
            "waitTime": 7072.51995022994,
            "responseTime": 1642383024886,
            "catchQuestion": "How many <b class=\"r\">red<\/b> marbles did your opponent report drawing? ",
            "catchKey": -1,
            "catchResponse": -1,
            "catchTime": 1642382949358,
            "trialTime": 0
        },
        {
            "exptPart": "trial",
            "trialNumber": 74,
            "roleCurrent": "sender",
            "marblesSampled": 100,
            "probRed": 0.5,
            "lambda": 5,
            "drawnRed": 57,
            "reportedRed": 52,
            "inferredRed": 55,
            "playerTrialScore": 2,
            "oppTrialScore": -2,
            "playerTotalScore": 5,
            "oppTotalScore": -133,
            "waitTime": 3241.1336429173575,
            "responseTime": 1642383045609,
            "catchQuestion": "How many <b class=\"r\">red<\/b> marbles did your opponent report drawing? ",
            "catchKey": -1,
            "catchResponse": -1,
            "catchTime": 1642382949358,
            "trialTime": 0
        },
        {
            "exptPart": "trial",
            "trialNumber": 75,
            "roleCurrent": "receiver",
            "marblesSampled": 100,
            "probRed": 0.5,
            "lambda": 5,
            "drawnRed": 61,
            "reportedRed": 56,
            "inferredRed": 60,
            "playerTrialScore": -1,
            "oppTrialScore": 1,
            "playerTotalScore": 4,
            "oppTotalScore": -132,
            "waitTime": 6272.993115224019,
            "responseTime": 1642383055976,
            "catchQuestion": "How many <b class=\"r\">red<\/b> marbles did your opponent report drawing? ",
            "catchKey": 56,
            "catchResponse": 56,
            "catchTime": 1642383055976,
            "trialTime": 0
        },
        {
            "exptPart": "trial",
            "trialNumber": 76,
            "roleCurrent": "sender",
            "marblesSampled": 100,
            "probRed": 0.5,
            "lambda": 5,
            "drawnRed": 50,
            "reportedRed": 46,
            "inferredRed": 55,
            "playerTrialScore": 0,
            "oppTrialScore": -5,
            "playerTotalScore": 4,
            "oppTotalScore": -137,
            "waitTime": 2768.2706360457632,
            "responseTime": 1642383088345,
            "catchQuestion": "How many <b class=\"r\">red<\/b> marbles did your opponent report drawing? ",
            "catchKey": -1,
            "catchResponse": -1,
            "catchTime": 1642383055976,
            "trialTime": 0
        },
        {
            "exptPart": "trial",
            "trialNumber": 77,
            "roleCurrent": "receiver",
            "marblesSampled": 100,
            "probRed": 0.5,
            "lambda": 5,
            "drawnRed": 61,
            "reportedRed": 55,
            "inferredRed": 60,
            "playerTrialScore": -1,
            "oppTrialScore": 1,
            "playerTotalScore": 3,
            "oppTotalScore": -136,
            "waitTime": 5765.736255487682,
            "responseTime": 1642383100563,
            "catchQuestion": "How many <b class=\"r\">red<\/b> marbles did your opponent report drawing? ",
            "catchKey": 55,
            "catchResponse": 55,
            "catchTime": 1642383100563,
            "trialTime": 0
        },
        {
            "exptPart": "trial",
            "trialNumber": 78,
            "roleCurrent": "sender",
            "marblesSampled": 100,
            "probRed": 0.5,
            "lambda": 5,
            "drawnRed": 53,
            "reportedRed": 46,
            "inferredRed": 54,
            "playerTrialScore": 0,
            "oppTrialScore": -1,
            "playerTotalScore": 3,
            "oppTotalScore": -137,
            "waitTime": 3184.9540938967943,
            "responseTime": 1642383122828,
            "catchQuestion": "How many <b class=\"r\">red<\/b> marbles did your opponent report drawing? ",
            "catchKey": -1,
            "catchResponse": -1,
            "catchTime": 1642383100563,
            "trialTime": 0
        },
        {
            "exptPart": "trial",
            "trialNumber": 79,
            "roleCurrent": "receiver",
            "marblesSampled": 100,
            "probRed": 0.5,
            "lambda": 5,
            "drawnRed": 44,
            "reportedRed": 39,
            "inferredRed": 45,
            "playerTrialScore": -1,
            "oppTrialScore": 0,
            "playerTotalScore": 2,
            "oppTotalScore": -137,
            "waitTime": 6606.784132821167,
            "responseTime": 1642383133923,
            "catchQuestion": "How many <b class=\"r\">red<\/b> marbles did your opponent report drawing? ",
            "catchKey": -1,
            "catchResponse": -1,
            "catchTime": 1642383100563,
            "trialTime": 0
        },
        {
            "exptPart": "trial",
            "trialNumber": 80,
            "roleCurrent": "sender",
            "marblesSampled": 100,
            "probRed": 0.5,
            "lambda": 5,
            "drawnRed": 46,
            "reportedRed": 41,
            "inferredRed": 44,
            "playerTrialScore": 2,
            "oppTrialScore": -2,
            "playerTotalScore": 4,
            "oppTotalScore": -139,
            "waitTime": 3115.7890894722545,
            "responseTime": 1642383149015,
            "catchQuestion": "How many <b class=\"r\">red<\/b> marbles did your opponent report drawing? ",
            "catchKey": -1,
            "catchResponse": -1,
            "catchTime": 1642383149015,
            "trialTime": 0
        },
        {
            "exptPart": "trial",
            "trialNumber": 81,
            "roleCurrent": "receiver",
            "marblesSampled": 100,
            "probRed": 0.5,
            "lambda": 5,
            "drawnRed": 15,
            "reportedRed": 8,
            "inferredRed": 15,
            "playerTrialScore": 0,
            "oppTrialScore": 0,
            "playerTotalScore": 4,
            "oppTotalScore": -139,
            "waitTime": 6751.245984134246,
            "responseTime": 1642383167496,
            "catchQuestion": "How many <b class=\"r\">red<\/b> marbles did your opponent report drawing? ",
            "catchKey": -1,
            "catchResponse": -1,
            "catchTime": 1642383149015,
            "trialTime": 0
        },
        {
            "exptPart": "trial",
            "trialNumber": 82,
            "roleCurrent": "sender",
            "marblesSampled": 100,
            "probRed": 0.5,
            "lambda": 5,
            "drawnRed": 80,
            "reportedRed": 77,
            "inferredRed": 78,
            "playerTrialScore": 2,
            "oppTrialScore": -2,
            "playerTotalScore": 6,
            "oppTotalScore": -141,
            "waitTime": 3140.2889965044096,
            "responseTime": 1642383230874,
            "catchQuestion": "How many <b class=\"r\">red<\/b> marbles did your opponent report drawing? ",
            "catchKey": -1,
            "catchResponse": -1,
            "catchTime": 1642383149015,
            "trialTime": 0
        },
        {
            "exptPart": "trial",
            "trialNumber": 83,
            "roleCurrent": "receiver",
            "marblesSampled": 100,
            "probRed": 0.5,
            "lambda": 5,
            "drawnRed": 31,
            "reportedRed": 28,
            "inferredRed": 35,
            "playerTrialScore": -4,
            "oppTrialScore": 0,
            "playerTotalScore": 2,
            "oppTotalScore": -141,
            "waitTime": 7478.787303555896,
            "responseTime": 1642383241945,
            "catchQuestion": "How many <b class=\"r\">red<\/b> marbles did your opponent report drawing? ",
            "catchKey": -1,
            "catchResponse": -1,
            "catchTime": 1642383149015,
            "trialTime": 0
        },
        {
            "exptPart": "trial",
            "trialNumber": 84,
            "roleCurrent": "sender",
            "marblesSampled": 100,
            "probRed": 0.5,
            "lambda": 5,
            "drawnRed": 63,
            "reportedRed": 57,
            "inferredRed": 59,
            "playerTrialScore": 4,
            "oppTrialScore": -4,
            "playerTotalScore": 6,
            "oppTotalScore": -145,
            "waitTime": 2562.4230284883442,
            "responseTime": 1642383260609,
            "catchQuestion": "How many <b class=\"r\">red<\/b> marbles did your opponent report drawing? ",
            "catchKey": -1,
            "catchResponse": -1,
            "catchTime": 1642383149015,
            "trialTime": 0
        },
        {
            "exptPart": "trial",
            "trialNumber": 85,
            "roleCurrent": "receiver",
            "marblesSampled": 100,
            "probRed": 0.5,
            "lambda": 5,
            "drawnRed": 57,
            "reportedRed": 51,
            "inferredRed": 60,
            "playerTrialScore": -3,
            "oppTrialScore": 0,
            "playerTotalScore": 3,
            "oppTotalScore": -145,
            "waitTime": 5271.0389870619665,
            "responseTime": 1642383269367,
            "catchQuestion": "How many <b class=\"r\">red<\/b> marbles did your opponent report drawing? ",
            "catchKey": -1,
            "catchResponse": -1,
            "catchTime": 1642383269367,
            "trialTime": 0
        },
        {
            "exptPart": "trial",
            "trialNumber": 86,
            "roleCurrent": "sender",
            "marblesSampled": 100,
            "probRed": 0.5,
            "lambda": 5,
            "drawnRed": 52,
            "reportedRed": 46,
            "inferredRed": 54,
            "playerTrialScore": 0,
            "oppTrialScore": -2,
            "playerTotalScore": 3,
            "oppTotalScore": -147,
            "waitTime": 2569.8142434704896,
            "responseTime": 1642383293825,
            "catchQuestion": "How many <b class=\"r\">red<\/b> marbles did your opponent report drawing? ",
            "catchKey": -1,
            "catchResponse": -1,
            "catchTime": 1642383269367,
            "trialTime": 0
        },
        {
            "exptPart": "trial",
            "trialNumber": 87,
            "roleCurrent": "receiver",
            "marblesSampled": 100,
            "probRed": 0.5,
            "lambda": 5,
            "drawnRed": 25,
            "reportedRed": 20,
            "inferredRed": 25,
            "playerTrialScore": 0,
            "oppTrialScore": 0,
            "playerTotalScore": 3,
            "oppTotalScore": -147,
            "waitTime": 6233.140715369973,
            "responseTime": 1642383305116,
            "catchQuestion": "How many <b class=\"r\">red<\/b> marbles did your opponent report drawing? ",
            "catchKey": -1,
            "catchResponse": -1,
            "catchTime": 1642383269367,
            "trialTime": 0
        },
        {
            "exptPart": "trial",
            "trialNumber": 88,
            "roleCurrent": "sender",
            "marblesSampled": 100,
            "probRed": 0.5,
            "lambda": 5,
            "drawnRed": 73,
            "reportedRed": 70,
            "inferredRed": 71,
            "playerTrialScore": 2,
            "oppTrialScore": -2,
            "playerTotalScore": 5,
            "oppTotalScore": -149,
            "waitTime": 2856.5786481393166,
            "responseTime": 1642383327684,
            "catchQuestion": "How many <b class=\"r\">red<\/b> marbles did your opponent report drawing? ",
            "catchKey": -1,
            "catchResponse": -1,
            "catchTime": 1642383269367,
            "trialTime": 0
        },
        {
            "exptPart": "trial",
            "trialNumber": 89,
            "roleCurrent": "receiver",
            "marblesSampled": 100,
            "probRed": 0.5,
            "lambda": 5,
            "drawnRed": 75,
            "reportedRed": 72,
            "inferredRed": 80,
            "playerTrialScore": -5,
            "oppTrialScore": 0,
            "playerTotalScore": 0,
            "oppTotalScore": -149,
            "waitTime": 5560.621646768387,
            "responseTime": 1642383337231,
            "catchQuestion": "How many <b class=\"r\">red<\/b> marbles did your opponent report drawing? ",
            "catchKey": -1,
            "catchResponse": -1,
            "catchTime": 1642383269367,
            "trialTime": 0
        },
        {
            "exptPart": "trial",
            "trialNumber": 90,
            "roleCurrent": "sender",
            "marblesSampled": 100,
            "probRed": 0.5,
            "lambda": 5,
            "drawnRed": 53,
            "reportedRed": 44,
            "inferredRed": 51,
            "playerTrialScore": 2,
            "oppTrialScore": -2,
            "playerTotalScore": 2,
            "oppTotalScore": -151,
            "waitTime": 2787.232274668405,
            "responseTime": 1642383364560,
            "catchQuestion": "How many <b class=\"r\">red<\/b> marbles did your opponent report drawing? ",
            "catchKey": -1,
            "catchResponse": -1,
            "catchTime": 1642383364561,
            "trialTime": 0
        },
        {
            "exptPart": "trial",
            "trialNumber": 91,
            "roleCurrent": "receiver",
            "marblesSampled": 100,
            "probRed": 0.5,
            "lambda": 5,
            "drawnRed": 40,
            "reportedRed": 39,
            "inferredRed": 45,
            "playerTrialScore": -5,
            "oppTrialScore": 0,
            "playerTotalScore": -3,
            "oppTotalScore": -151,
            "waitTime": 6643.186573115063,
            "responseTime": 1642383378355,
            "catchQuestion": "How many <b class=\"r\">red<\/b> marbles did your opponent report drawing? ",
            "catchKey": -1,
            "catchResponse": -1,
            "catchTime": 1642383364561,
            "trialTime": 0
        },
        {
            "exptPart": "trial",
            "trialNumber": 92,
            "roleCurrent": "sender",
            "marblesSampled": 100,
            "probRed": 0.5,
            "lambda": 5,
            "drawnRed": 24,
            "reportedRed": 11,
            "inferredRed": 15,
            "playerTrialScore": 9,
            "oppTrialScore": -9,
            "playerTotalScore": 6,
            "oppTotalScore": -160,
            "waitTime": 2372.424616739724,
            "responseTime": 1642383415262,
            "catchQuestion": "How many <b class=\"r\">red<\/b> marbles did your opponent report drawing? ",
            "catchKey": -1,
            "catchResponse": -1,
            "catchTime": 1642383364561,
            "trialTime": 0
        },
        {
            "exptPart": "trial",
            "trialNumber": 93,
            "roleCurrent": "receiver",
            "marblesSampled": 100,
            "probRed": 0.5,
            "lambda": 5,
            "drawnRed": 45,
            "reportedRed": 37,
            "inferredRed": 45,
            "playerTrialScore": 0,
            "oppTrialScore": 0,
            "playerTotalScore": 6,
            "oppTotalScore": -160,
            "waitTime": 5414.555721499439,
            "responseTime": 1642383423385,
            "catchQuestion": "How many <b class=\"r\">red<\/b> marbles did your opponent report drawing? ",
            "catchKey": -1,
            "catchResponse": -1,
            "catchTime": 1642383364561,
            "trialTime": 0
        },
        {
            "exptPart": "trial",
            "trialNumber": 94,
            "roleCurrent": "sender",
            "marblesSampled": 100,
            "probRed": 0.5,
            "lambda": 5,
            "drawnRed": 39,
            "reportedRed": 33,
            "inferredRed": 41,
            "playerTrialScore": 0,
            "oppTrialScore": -2,
            "playerTotalScore": 6,
            "oppTotalScore": -162,
            "waitTime": 2301.482078937535,
            "responseTime": 1642383440229,
            "catchQuestion": "How many <b class=\"r\">red<\/b> marbles did your opponent report drawing? ",
            "catchKey": -1,
            "catchResponse": -1,
            "catchTime": 1642383364561,
            "trialTime": 0
        },
        {
            "exptPart": "trial",
            "trialNumber": 95,
            "roleCurrent": "receiver",
            "marblesSampled": 100,
            "probRed": 0.5,
            "lambda": 5,
            "drawnRed": 51,
            "reportedRed": 47,
            "inferredRed": 55,
            "playerTrialScore": -4,
            "oppTrialScore": 0,
            "playerTotalScore": 2,
            "oppTotalScore": -162,
            "waitTime": 5218.2637981489515,
            "responseTime": 1642383448312,
            "catchQuestion": "How many <b class=\"r\">red<\/b> marbles did your opponent report drawing? ",
            "catchKey": -1,
            "catchResponse": -1,
            "catchTime": 1642383448312,
            "trialTime": 0
        },
        {
            "exptPart": "trial",
            "trialNumber": 96,
            "roleCurrent": "sender",
            "marblesSampled": 100,
            "probRed": 0.5,
            "lambda": 5,
            "drawnRed": 78,
            "reportedRed": 76,
            "inferredRed": 80,
            "playerTrialScore": 0,
            "oppTrialScore": -2,
            "playerTotalScore": 2,
            "oppTotalScore": -164,
            "waitTime": 2344.6064918387438,
            "responseTime": 1642383478141,
            "catchQuestion": "How many <b class=\"r\">red<\/b> marbles did your opponent report drawing? ",
            "catchKey": -1,
            "catchResponse": -1,
            "catchTime": 1642383448312,
            "trialTime": 0
        },
        {
            "exptPart": "trial",
            "trialNumber": 97,
            "roleCurrent": "receiver",
            "marblesSampled": 100,
            "probRed": 0.5,
            "lambda": 5,
            "drawnRed": 11,
            "reportedRed": 3,
            "inferredRed": 10,
            "playerTrialScore": -1,
            "oppTrialScore": 1,
            "playerTotalScore": 1,
            "oppTotalScore": -163,
            "waitTime": 5536.361636151058,
            "responseTime": 1642383488217,
            "catchQuestion": "How many <b class=\"r\">red<\/b> marbles did your opponent report drawing? ",
            "catchKey": 3,
            "catchResponse": 3,
            "catchTime": 1642383488218,
            "trialTime": 0
        },
        {
            "exptPart": "trial",
            "trialNumber": 98,
            "roleCurrent": "sender",
            "marblesSampled": 100,
            "probRed": 0.5,
            "lambda": 5,
            "drawnRed": 57,
            "reportedRed": 54,
            "inferredRed": 61,
            "playerTrialScore": 0,
            "oppTrialScore": -4,
            "playerTotalScore": 1,
            "oppTotalScore": -167,
            "waitTime": 2591.279363329971,
            "responseTime": 1642383511101,
            "catchQuestion": "How many <b class=\"r\">red<\/b> marbles did your opponent report drawing? ",
            "catchKey": -1,
            "catchResponse": -1,
            "catchTime": 1642383488218,
            "trialTime": 0
        },
        {
            "exptPart": "trial",
            "trialNumber": 99,
            "roleCurrent": "receiver",
            "marblesSampled": 100,
            "probRed": 0.5,
            "lambda": 5,
            "drawnRed": 74,
            "reportedRed": 69,
            "inferredRed": 75,
            "playerTrialScore": -1,
            "oppTrialScore": 0,
            "playerTotalScore": 0,
            "oppTotalScore": -167,
            "waitTime": 7372.846155179293,
            "responseTime": 1642383521110,
            "catchQuestion": "How many <b class=\"r\">red<\/b> marbles did your opponent report drawing? ",
            "catchKey": -1,
            "catchResponse": -1,
            "catchTime": 1642383488218,
            "trialTime": 0
        },
        {
            "exptPart": "trial",
            "trialNumber": 100,
            "roleCurrent": "sender",
            "marblesSampled": 100,
            "probRed": 0.5,
            "lambda": 5,
            "drawnRed": 88,
            "reportedRed": 83,
            "inferredRed": 87,
            "playerTrialScore": 1,
            "oppTrialScore": -1,
            "playerTotalScore": 1,
            "oppTotalScore": -168,
            "waitTime": 2999.2995477740124,
            "responseTime": 1642383545659,
            "catchQuestion": "How many <b class=\"r\">red<\/b> marbles did your opponent report drawing? ",
            "catchKey": -1,
            "catchResponse": -1,
            "catchTime": 1642383545659,
            "trialTime": 0
        }
    ]
}