{
    "client": {
        "type": "sona",
        "experiment_id": 2228,
        "credit_token": "b315147ae43241ea9c65086cb510cfb7",
        "survey_code": "32119",
        "sid": "sona-32119",
        "window": {
            "width": 1885,
            "height": 883
        },
        "screen": {
            "width": 1920,
            "height": 1080
        },
        "userAgent": "Mozilla\/5.0 (Windows NT 10.0; Win64; x64) AppleWebKit\/537.36 (KHTML, like Gecko) Chrome\/97.0.4692.71 Safari\/537.36",
        "score": 0,
        "bonus": 0
    },
    "expt": {
        "saveURL": "submit.simple.php",
        "trials": 100,
        "practiceTrials": 2,
        "marblesSampled": 100,
        "probRed": 0.5,
        "lambdaAI": 5,
        "roleFirst": "sender",
        "roles": [
            "sender",
            "receiver"
        ],
        "cost": "linear",
        "goal": "under",
        "catchTrials": [
            92,
            90,
            24,
            59,
            84,
            87,
            12,
            88,
            48,
            7
        ],
        "scoreTotal": {
            "player": -413,
            "opp": 386
        },
        "sona": {
            "experiment_id": 2228,
            "credit_token": "b315147ae43241ea9c65086cb510cfb7"
        },
        "pilot": false,
        "debug": false
    },
    "trials": [
        {
            "exptPart": "practice",
            "trialNumber": 1,
            "roleCurrent": "sender",
            "marblesSampled": 100,
            "probRed": 0.5,
            "lambda": 5,
            "drawnRed": 37,
            "reportedRed": 37,
            "inferredRed": 42,
            "playerTrialScore": 0,
            "oppTrialScore": -5,
            "playerTotalScore": 0,
            "oppTotalScore": -5,
            "waitTime": 2318.613536118104,
            "responseTime": 1642980469923,
            "catchQuestion": "How many <b class=\"r\">red<\/b> marbles did you actually draw (before any changes)? ",
            "catchKey": 37,
            "catchResponse": 34,
            "catchTime": 1642980469924,
            "trialTime": 0
        },
        {
            "exptPart": "practice",
            "trialNumber": 2,
            "roleCurrent": "receiver",
            "marblesSampled": 100,
            "probRed": 0.5,
            "lambda": 5,
            "drawnRed": 81,
            "reportedRed": 75,
            "inferredRed": 34,
            "playerTrialScore": -47,
            "oppTrialScore": 47,
            "playerTotalScore": -47,
            "oppTotalScore": 42,
            "waitTime": 6211.800702634226,
            "responseTime": 1642980510221,
            "catchQuestion": "How many <b class=\"r\">red<\/b> marbles did your opponent report drawing? ",
            "catchKey": 75,
            "catchResponse": 34,
            "catchTime": 1642980510221,
            "trialTime": 0
        },
        {
            "exptPart": "trial",
            "trialNumber": 1,
            "roleCurrent": "sender",
            "marblesSampled": 100,
            "probRed": 0.5,
            "lambda": 5,
            "drawnRed": 51,
            "reportedRed": 52,
            "inferredRed": 56,
            "playerTrialScore": 0,
            "oppTrialScore": -5,
            "playerTotalScore": 0,
            "oppTotalScore": -5,
            "waitTime": 2674.9180565243523,
            "responseTime": 1642980533209,
            "catchQuestion": "How many <b class=\"r\">red<\/b> marbles did your opponent report drawing? ",
            "catchKey": -1,
            "catchResponse": -1,
            "catchTime": 1642980510221,
            "trialTime": 0
        },
        {
            "exptPart": "trial",
            "trialNumber": 2,
            "roleCurrent": "receiver",
            "marblesSampled": 100,
            "probRed": 0.5,
            "lambda": 5,
            "drawnRed": 53,
            "reportedRed": 46,
            "inferredRed": 22,
            "playerTrialScore": -31,
            "oppTrialScore": 31,
            "playerTotalScore": -31,
            "oppTotalScore": 26,
            "waitTime": 7175.694477436944,
            "responseTime": 1642980593869,
            "catchQuestion": "How many <b class=\"r\">red<\/b> marbles did your opponent report drawing? ",
            "catchKey": -1,
            "catchResponse": -1,
            "catchTime": 1642980510221,
            "trialTime": 0
        },
        {
            "exptPart": "trial",
            "trialNumber": 3,
            "roleCurrent": "sender",
            "marblesSampled": 100,
            "probRed": 0.5,
            "lambda": 5,
            "drawnRed": 69,
            "reportedRed": 69,
            "inferredRed": 73,
            "playerTrialScore": 0,
            "oppTrialScore": -4,
            "playerTotalScore": -31,
            "oppTotalScore": 22,
            "waitTime": 2518.4315842255082,
            "responseTime": 1642980604530,
            "catchQuestion": "How many <b class=\"r\">red<\/b> marbles did your opponent report drawing? ",
            "catchKey": -1,
            "catchResponse": -1,
            "catchTime": 1642980510221,
            "trialTime": 0
        },
        {
            "exptPart": "trial",
            "trialNumber": 4,
            "roleCurrent": "receiver",
            "marblesSampled": 100,
            "probRed": 0.5,
            "lambda": 5,
            "drawnRed": 51,
            "reportedRed": 43,
            "inferredRed": 2,
            "playerTrialScore": -49,
            "oppTrialScore": 49,
            "playerTotalScore": -80,
            "oppTotalScore": 71,
            "waitTime": 5314.6550866059915,
            "responseTime": 1642982995519,
            "catchQuestion": "How many <b class=\"r\">red<\/b> marbles did your opponent report drawing? ",
            "catchKey": -1,
            "catchResponse": -1,
            "catchTime": 1642980510221,
            "trialTime": 0
        },
        {
            "exptPart": "trial",
            "trialNumber": 5,
            "roleCurrent": "sender",
            "marblesSampled": 100,
            "probRed": 0.5,
            "lambda": 5,
            "drawnRed": 54,
            "reportedRed": 54,
            "inferredRed": 60,
            "playerTrialScore": 0,
            "oppTrialScore": -6,
            "playerTotalScore": -80,
            "oppTotalScore": 53,
            "waitTime": 2650.86951097369,
            "responseTime": 1642983037909,
            "catchQuestion": "How many <b class=\"r\">red<\/b> marbles did your opponent report drawing? ",
            "catchKey": -1,
            "catchResponse": -1,
            "catchTime": 1642983037909,
            "trialTime": 0
        },
        {
            "exptPart": "trial",
            "trialNumber": 6,
            "roleCurrent": "receiver",
            "marblesSampled": 100,
            "probRed": 0.5,
            "lambda": 5,
            "drawnRed": 62,
            "reportedRed": 56,
            "inferredRed": 5,
            "playerTrialScore": -57,
            "oppTrialScore": 57,
            "playerTotalScore": -137,
            "oppTotalScore": 110,
            "waitTime": 6647.0048688618845,
            "responseTime": 1642983346680,
            "catchQuestion": "How many <b class=\"r\">red<\/b> marbles did your opponent report drawing? ",
            "catchKey": -1,
            "catchResponse": -1,
            "catchTime": 1642983037909,
            "trialTime": 0
        },
        {
            "exptPart": "trial",
            "trialNumber": 7,
            "roleCurrent": "sender",
            "marblesSampled": 100,
            "probRed": 0.5,
            "lambda": 5,
            "drawnRed": 83,
            "reportedRed": 83,
            "inferredRed": 88,
            "playerTrialScore": -57,
            "oppTrialScore": 57,
            "playerTotalScore": -137,
            "oppTotalScore": 110,
            "waitTime": 2459.778094478809,
            "responseTime": 1642983346680,
            "catchQuestion": "How many <b class=\"r\">red<\/b> marbles did your opponent report drawing? ",
            "catchKey": -1,
            "catchResponse": -1,
            "catchTime": 1642983037909,
            "trialTime": 0
        },
        {
            "exptPart": "trial",
            "trialNumber": 8,
            "roleCurrent": "receiver",
            "marblesSampled": 100,
            "probRed": 0.5,
            "lambda": 5,
            "drawnRed": 69,
            "reportedRed": 65,
            "inferredRed": 0,
            "playerTrialScore": -69,
            "oppTrialScore": 69,
            "playerTotalScore": -413,
            "oppTotalScore": 386,
            "waitTime": 5882.737958136432,
            "responseTime": 1642983618105,
            "catchQuestion": "How many <b class=\"r\">red<\/b> marbles did your opponent report drawing? ",
            "catchKey": 65,
            "catchResponse": -1,
            "catchTime": 1642983618105,
            "trialTime": 0
        },
        {
            "exptPart": "trial",
            "trialNumber": 9,
            "roleCurrent": "sender",
            "marblesSampled": 100,
            "probRed": 0.5,
            "lambda": 5,
            "drawnRed": 53,
            "reportedRed": 53,
            "inferredRed": 0,
            "playerTrialScore": -69,
            "oppTrialScore": 69,
            "playerTotalScore": -413,
            "oppTotalScore": 386,
            "waitTime": 3226.1024379496243,
            "responseTime": 1642983618105,
            "catchQuestion": "How many <b class=\"r\">red<\/b> marbles did your opponent report drawing? ",
            "catchKey": -1,
            "catchResponse": -1,
            "catchTime": 1642983618105,
            "trialTime": 0
        },
        {
            "exptPart": "trial",
            "trialNumber": 10,
            "roleCurrent": "receiver",
            "marblesSampled": 100,
            "probRed": 0.5,
            "lambda": 5,
            "drawnRed": 42,
            "reportedRed": 34,
            "inferredRed": 0,
            "playerTrialScore": -69,
            "oppTrialScore": 69,
            "playerTotalScore": -413,
            "oppTotalScore": 386,
            "waitTime": 6155.421108376522,
            "responseTime": 1642983618105,
            "catchQuestion": "How many <b class=\"r\">red<\/b> marbles did your opponent report drawing? ",
            "catchKey": -1,
            "catchResponse": -1,
            "catchTime": 1642983618105,
            "trialTime": 0
        },
        {
            "exptPart": "trial",
            "trialNumber": 11,
            "roleCurrent": "sender",
            "marblesSampled": 100,
            "probRed": 0.5,
            "lambda": 5,
            "drawnRed": 75,
            "reportedRed": 75,
            "inferredRed": 0,
            "playerTrialScore": -69,
            "oppTrialScore": 69,
            "playerTotalScore": -413,
            "oppTotalScore": 386,
            "waitTime": 2804.217515684928,
            "responseTime": 1642983618105,
            "catchQuestion": "How many <b class=\"r\">red<\/b> marbles did your opponent report drawing? ",
            "catchKey": -1,
            "catchResponse": -1,
            "catchTime": 1642983618105,
            "trialTime": 0
        },
        {
            "exptPart": "trial",
            "trialNumber": 12,
            "roleCurrent": "receiver",
            "marblesSampled": 100,
            "probRed": 0.5,
            "lambda": 5,
            "drawnRed": 18,
            "reportedRed": 15,
            "inferredRed": 0,
            "playerTrialScore": -69,
            "oppTrialScore": 69,
            "playerTotalScore": -413,
            "oppTotalScore": 386,
            "waitTime": 5864.727945627828,
            "responseTime": 1642983618105,
            "catchQuestion": "How many <b class=\"r\">red<\/b> marbles did your opponent report drawing? ",
            "catchKey": -1,
            "catchResponse": -1,
            "catchTime": 1642983618105,
            "trialTime": 0
        },
        {
            "exptPart": "trial",
            "trialNumber": 13,
            "roleCurrent": "sender",
            "marblesSampled": 100,
            "probRed": 0.5,
            "lambda": 5,
            "drawnRed": 71,
            "reportedRed": 71,
            "inferredRed": 75,
            "playerTrialScore": -69,
            "oppTrialScore": 69,
            "playerTotalScore": -413,
            "oppTotalScore": 386,
            "waitTime": 2914.17812375244,
            "responseTime": 1642983618105,
            "catchQuestion": "How many <b class=\"r\">red<\/b> marbles did your opponent report drawing? ",
            "catchKey": -1,
            "catchResponse": -1,
            "catchTime": 1642983618105,
            "trialTime": 0
        },
        {
            "exptPart": "trial",
            "trialNumber": 14,
            "roleCurrent": "receiver",
            "marblesSampled": 100,
            "probRed": 0.5,
            "lambda": 5,
            "drawnRed": 0,
            "reportedRed": 0,
            "inferredRed": 0,
            "playerTrialScore": -69,
            "oppTrialScore": 69,
            "playerTotalScore": -413,
            "oppTotalScore": 386,
            "waitTime": 7058.642402013733,
            "responseTime": 1642983618105,
            "catchQuestion": "How many <b class=\"r\">red<\/b> marbles did your opponent report drawing? ",
            "catchKey": -1,
            "catchResponse": -1,
            "catchTime": 1642983618105,
            "trialTime": 0
        },
        {
            "exptPart": "trial",
            "trialNumber": 15,
            "roleCurrent": "sender",
            "marblesSampled": 100,
            "probRed": 0.5,
            "lambda": 5,
            "drawnRed": 0,
            "reportedRed": 0,
            "inferredRed": 0,
            "playerTrialScore": -69,
            "oppTrialScore": 69,
            "playerTotalScore": -413,
            "oppTotalScore": 386,
            "waitTime": 2182.1729895998524,
            "responseTime": 1642983618105,
            "catchQuestion": "How many <b class=\"r\">red<\/b> marbles did your opponent report drawing? ",
            "catchKey": -1,
            "catchResponse": -1,
            "catchTime": 1642983618105,
            "trialTime": 0
        },
        {
            "exptPart": "trial",
            "trialNumber": 16,
            "roleCurrent": "receiver",
            "marblesSampled": 100,
            "probRed": 0.5,
            "lambda": 5,
            "drawnRed": 0,
            "reportedRed": 0,
            "inferredRed": 0,
            "playerTrialScore": -69,
            "oppTrialScore": 69,
            "playerTotalScore": -413,
            "oppTotalScore": 386,
            "waitTime": 6327.042083294879,
            "responseTime": 1642983618105,
            "catchQuestion": "How many <b class=\"r\">red<\/b> marbles did your opponent report drawing? ",
            "catchKey": -1,
            "catchResponse": -1,
            "catchTime": 1642983618105,
            "trialTime": 0
        },
        {
            "exptPart": "trial",
            "trialNumber": 17,
            "roleCurrent": "sender",
            "marblesSampled": 100,
            "probRed": 0.5,
            "lambda": 5,
            "drawnRed": 0,
            "reportedRed": 0,
            "inferredRed": 0,
            "playerTrialScore": -69,
            "oppTrialScore": 69,
            "playerTotalScore": -413,
            "oppTotalScore": 386,
            "waitTime": 2901.105351893203,
            "responseTime": 1642983618105,
            "catchQuestion": "How many <b class=\"r\">red<\/b> marbles did your opponent report drawing? ",
            "catchKey": -1,
            "catchResponse": -1,
            "catchTime": 1642983618105,
            "trialTime": 0
        },
        {
            "exptPart": "trial",
            "trialNumber": 18,
            "roleCurrent": "receiver",
            "marblesSampled": 100,
            "probRed": 0.5,
            "lambda": 5,
            "drawnRed": 0,
            "reportedRed": 0,
            "inferredRed": 0,
            "playerTrialScore": -69,
            "oppTrialScore": 69,
            "playerTotalScore": -413,
            "oppTotalScore": 386,
            "waitTime": 5895.69666007072,
            "responseTime": 1642983618105,
            "catchQuestion": "How many <b class=\"r\">red<\/b> marbles did your opponent report drawing? ",
            "catchKey": -1,
            "catchResponse": -1,
            "catchTime": 1642983618105,
            "trialTime": 0
        },
        {
            "exptPart": "trial",
            "trialNumber": 19,
            "roleCurrent": "sender",
            "marblesSampled": 100,
            "probRed": 0.5,
            "lambda": 5,
            "drawnRed": 0,
            "reportedRed": 0,
            "inferredRed": 0,
            "playerTrialScore": -69,
            "oppTrialScore": 69,
            "playerTotalScore": -413,
            "oppTotalScore": 386,
            "waitTime": 2085.4596556991282,
            "responseTime": 1642983618105,
            "catchQuestion": "How many <b class=\"r\">red<\/b> marbles did your opponent report drawing? ",
            "catchKey": -1,
            "catchResponse": -1,
            "catchTime": 1642983618105,
            "trialTime": 0
        },
        {
            "exptPart": "trial",
            "trialNumber": 20,
            "roleCurrent": "receiver",
            "marblesSampled": 100,
            "probRed": 0.5,
            "lambda": 5,
            "drawnRed": 0,
            "reportedRed": 0,
            "inferredRed": 0,
            "playerTrialScore": -69,
            "oppTrialScore": 69,
            "playerTotalScore": -413,
            "oppTotalScore": 386,
            "waitTime": 5166.596096076204,
            "responseTime": 1642983618105,
            "catchQuestion": "How many <b class=\"r\">red<\/b> marbles did your opponent report drawing? ",
            "catchKey": -1,
            "catchResponse": -1,
            "catchTime": 1642983618105,
            "trialTime": 0
        },
        {
            "exptPart": "trial",
            "trialNumber": 21,
            "roleCurrent": "sender",
            "marblesSampled": 100,
            "probRed": 0.5,
            "lambda": 5,
            "drawnRed": 0,
            "reportedRed": 0,
            "inferredRed": 0,
            "playerTrialScore": -69,
            "oppTrialScore": 69,
            "playerTotalScore": -413,
            "oppTotalScore": 386,
            "waitTime": 2303.6659579023735,
            "responseTime": 1642983618105,
            "catchQuestion": "How many <b class=\"r\">red<\/b> marbles did your opponent report drawing? ",
            "catchKey": -1,
            "catchResponse": -1,
            "catchTime": 1642983618105,
            "trialTime": 0
        },
        {
            "exptPart": "trial",
            "trialNumber": 22,
            "roleCurrent": "receiver",
            "marblesSampled": 100,
            "probRed": 0.5,
            "lambda": 5,
            "drawnRed": 0,
            "reportedRed": 0,
            "inferredRed": 0,
            "playerTrialScore": -69,
            "oppTrialScore": 69,
            "playerTotalScore": -413,
            "oppTotalScore": 386,
            "waitTime": 7414.060225325096,
            "responseTime": 1642983618105,
            "catchQuestion": "How many <b class=\"r\">red<\/b> marbles did your opponent report drawing? ",
            "catchKey": -1,
            "catchResponse": -1,
            "catchTime": 1642983618105,
            "trialTime": 0
        },
        {
            "exptPart": "trial",
            "trialNumber": 23,
            "roleCurrent": "sender",
            "marblesSampled": 100,
            "probRed": 0.5,
            "lambda": 5,
            "drawnRed": 0,
            "reportedRed": 0,
            "inferredRed": 0,
            "playerTrialScore": -69,
            "oppTrialScore": 69,
            "playerTotalScore": -413,
            "oppTotalScore": 386,
            "waitTime": 2814.2369373259016,
            "responseTime": 1642983618105,
            "catchQuestion": "How many <b class=\"r\">red<\/b> marbles did your opponent report drawing? ",
            "catchKey": -1,
            "catchResponse": -1,
            "catchTime": 1642983618105,
            "trialTime": 0
        },
        {
            "exptPart": "trial",
            "trialNumber": 24,
            "roleCurrent": "receiver",
            "marblesSampled": 100,
            "probRed": 0.5,
            "lambda": 5,
            "drawnRed": 0,
            "reportedRed": 0,
            "inferredRed": 0,
            "playerTrialScore": -69,
            "oppTrialScore": 69,
            "playerTotalScore": -413,
            "oppTotalScore": 386,
            "waitTime": 6214.065269362734,
            "responseTime": 1642983618105,
            "catchQuestion": "How many <b class=\"r\">red<\/b> marbles did your opponent report drawing? ",
            "catchKey": -1,
            "catchResponse": -1,
            "catchTime": 1642983618105,
            "trialTime": 0
        },
        {
            "exptPart": "trial",
            "trialNumber": 25,
            "roleCurrent": "sender",
            "marblesSampled": 100,
            "probRed": 0.5,
            "lambda": 5,
            "drawnRed": 0,
            "reportedRed": 0,
            "inferredRed": 0,
            "playerTrialScore": -69,
            "oppTrialScore": 69,
            "playerTotalScore": -413,
            "oppTotalScore": 386,
            "waitTime": 2603.905501380903,
            "responseTime": 1642983618105,
            "catchQuestion": "How many <b class=\"r\">red<\/b> marbles did your opponent report drawing? ",
            "catchKey": -1,
            "catchResponse": -1,
            "catchTime": 1642983618105,
            "trialTime": 0
        },
        {
            "exptPart": "trial",
            "trialNumber": 26,
            "roleCurrent": "receiver",
            "marblesSampled": 100,
            "probRed": 0.5,
            "lambda": 5,
            "drawnRed": 0,
            "reportedRed": 0,
            "inferredRed": 0,
            "playerTrialScore": -69,
            "oppTrialScore": 69,
            "playerTotalScore": -413,
            "oppTotalScore": 386,
            "waitTime": 7125.391474935188,
            "responseTime": 1642983618105,
            "catchQuestion": "How many <b class=\"r\">red<\/b> marbles did your opponent report drawing? ",
            "catchKey": -1,
            "catchResponse": -1,
            "catchTime": 1642983618105,
            "trialTime": 0
        },
        {
            "exptPart": "trial",
            "trialNumber": 27,
            "roleCurrent": "sender",
            "marblesSampled": 100,
            "probRed": 0.5,
            "lambda": 5,
            "drawnRed": 0,
            "reportedRed": 0,
            "inferredRed": 0,
            "playerTrialScore": -69,
            "oppTrialScore": 69,
            "playerTotalScore": -413,
            "oppTotalScore": 386,
            "waitTime": 2596.112937000661,
            "responseTime": 1642983618105,
            "catchQuestion": "How many <b class=\"r\">red<\/b> marbles did your opponent report drawing? ",
            "catchKey": -1,
            "catchResponse": -1,
            "catchTime": 1642983618105,
            "trialTime": 0
        },
        {
            "exptPart": "trial",
            "trialNumber": 28,
            "roleCurrent": "receiver",
            "marblesSampled": 100,
            "probRed": 0.5,
            "lambda": 5,
            "drawnRed": 0,
            "reportedRed": 0,
            "inferredRed": 0,
            "playerTrialScore": -69,
            "oppTrialScore": 69,
            "playerTotalScore": -413,
            "oppTotalScore": 386,
            "waitTime": 7179.36665805398,
            "responseTime": 1642983618105,
            "catchQuestion": "How many <b class=\"r\">red<\/b> marbles did your opponent report drawing? ",
            "catchKey": -1,
            "catchResponse": -1,
            "catchTime": 1642983618105,
            "trialTime": 0
        },
        {
            "exptPart": "trial",
            "trialNumber": 29,
            "roleCurrent": "sender",
            "marblesSampled": 100,
            "probRed": 0.5,
            "lambda": 5,
            "drawnRed": 0,
            "reportedRed": 0,
            "inferredRed": 0,
            "playerTrialScore": -69,
            "oppTrialScore": 69,
            "playerTotalScore": -413,
            "oppTotalScore": 386,
            "waitTime": 2864.36367738231,
            "responseTime": 1642983618105,
            "catchQuestion": "How many <b class=\"r\">red<\/b> marbles did your opponent report drawing? ",
            "catchKey": -1,
            "catchResponse": -1,
            "catchTime": 1642983618105,
            "trialTime": 0
        },
        {
            "exptPart": "trial",
            "trialNumber": 30,
            "roleCurrent": "receiver",
            "marblesSampled": 100,
            "probRed": 0.5,
            "lambda": 5,
            "drawnRed": 0,
            "reportedRed": 0,
            "inferredRed": 0,
            "playerTrialScore": -69,
            "oppTrialScore": 69,
            "playerTotalScore": -413,
            "oppTotalScore": 386,
            "waitTime": 6375.353916038008,
            "responseTime": 1642983618105,
            "catchQuestion": "How many <b class=\"r\">red<\/b> marbles did your opponent report drawing? ",
            "catchKey": -1,
            "catchResponse": -1,
            "catchTime": 1642983618105,
            "trialTime": 0
        },
        {
            "exptPart": "trial",
            "trialNumber": 31,
            "roleCurrent": "sender",
            "marblesSampled": 100,
            "probRed": 0.5,
            "lambda": 5,
            "drawnRed": 0,
            "reportedRed": 0,
            "inferredRed": 0,
            "playerTrialScore": -69,
            "oppTrialScore": 69,
            "playerTotalScore": -413,
            "oppTotalScore": 386,
            "waitTime": 3167.0963625938393,
            "responseTime": 1642983618105,
            "catchQuestion": "How many <b class=\"r\">red<\/b> marbles did your opponent report drawing? ",
            "catchKey": -1,
            "catchResponse": -1,
            "catchTime": 1642983618105,
            "trialTime": 0
        },
        {
            "exptPart": "trial",
            "trialNumber": 32,
            "roleCurrent": "receiver",
            "marblesSampled": 100,
            "probRed": 0.5,
            "lambda": 5,
            "drawnRed": 0,
            "reportedRed": 0,
            "inferredRed": 0,
            "playerTrialScore": -69,
            "oppTrialScore": 69,
            "playerTotalScore": -413,
            "oppTotalScore": 386,
            "waitTime": 6815.8796154888805,
            "responseTime": 1642983618105,
            "catchQuestion": "How many <b class=\"r\">red<\/b> marbles did your opponent report drawing? ",
            "catchKey": -1,
            "catchResponse": -1,
            "catchTime": 1642983618105,
            "trialTime": 0
        },
        {
            "exptPart": "trial",
            "trialNumber": 33,
            "roleCurrent": "sender",
            "marblesSampled": 100,
            "probRed": 0.5,
            "lambda": 5,
            "drawnRed": 0,
            "reportedRed": 0,
            "inferredRed": 0,
            "playerTrialScore": -69,
            "oppTrialScore": 69,
            "playerTotalScore": -413,
            "oppTotalScore": 386,
            "waitTime": 2597.692532941902,
            "responseTime": 1642983618105,
            "catchQuestion": "How many <b class=\"r\">red<\/b> marbles did your opponent report drawing? ",
            "catchKey": -1,
            "catchResponse": -1,
            "catchTime": 1642983618105,
            "trialTime": 0
        },
        {
            "exptPart": "trial",
            "trialNumber": 34,
            "roleCurrent": "receiver",
            "marblesSampled": 100,
            "probRed": 0.5,
            "lambda": 5,
            "drawnRed": 0,
            "reportedRed": 0,
            "inferredRed": 0,
            "playerTrialScore": -69,
            "oppTrialScore": 69,
            "playerTotalScore": -413,
            "oppTotalScore": 386,
            "waitTime": 5552.541284611203,
            "responseTime": 1642983618105,
            "catchQuestion": "How many <b class=\"r\">red<\/b> marbles did your opponent report drawing? ",
            "catchKey": -1,
            "catchResponse": -1,
            "catchTime": 1642983618105,
            "trialTime": 0
        },
        {
            "exptPart": "trial",
            "trialNumber": 35,
            "roleCurrent": "sender",
            "marblesSampled": 100,
            "probRed": 0.5,
            "lambda": 5,
            "drawnRed": 0,
            "reportedRed": 0,
            "inferredRed": 0,
            "playerTrialScore": -69,
            "oppTrialScore": 69,
            "playerTotalScore": -413,
            "oppTotalScore": 386,
            "waitTime": 2235.629616286371,
            "responseTime": 1642983618105,
            "catchQuestion": "How many <b class=\"r\">red<\/b> marbles did your opponent report drawing? ",
            "catchKey": -1,
            "catchResponse": -1,
            "catchTime": 1642983618105,
            "trialTime": 0
        },
        {
            "exptPart": "trial",
            "trialNumber": 36,
            "roleCurrent": "receiver",
            "marblesSampled": 100,
            "probRed": 0.5,
            "lambda": 5,
            "drawnRed": 0,
            "reportedRed": 0,
            "inferredRed": 0,
            "playerTrialScore": -69,
            "oppTrialScore": 69,
            "playerTotalScore": -413,
            "oppTotalScore": 386,
            "waitTime": 5704.026932289173,
            "responseTime": 1642983618105,
            "catchQuestion": "How many <b class=\"r\">red<\/b> marbles did your opponent report drawing? ",
            "catchKey": -1,
            "catchResponse": -1,
            "catchTime": 1642983618105,
            "trialTime": 0
        },
        {
            "exptPart": "trial",
            "trialNumber": 37,
            "roleCurrent": "sender",
            "marblesSampled": 100,
            "probRed": 0.5,
            "lambda": 5,
            "drawnRed": 0,
            "reportedRed": 0,
            "inferredRed": 0,
            "playerTrialScore": -69,
            "oppTrialScore": 69,
            "playerTotalScore": -413,
            "oppTotalScore": 386,
            "waitTime": 2936.5173668601406,
            "responseTime": 1642983618105,
            "catchQuestion": "How many <b class=\"r\">red<\/b> marbles did your opponent report drawing? ",
            "catchKey": -1,
            "catchResponse": -1,
            "catchTime": 1642983618105,
            "trialTime": 0
        },
        {
            "exptPart": "trial",
            "trialNumber": 38,
            "roleCurrent": "receiver",
            "marblesSampled": 100,
            "probRed": 0.5,
            "lambda": 5,
            "drawnRed": 0,
            "reportedRed": 0,
            "inferredRed": 0,
            "playerTrialScore": -69,
            "oppTrialScore": 69,
            "playerTotalScore": -413,
            "oppTotalScore": 386,
            "waitTime": 7131.902904162346,
            "responseTime": 1642983618105,
            "catchQuestion": "How many <b class=\"r\">red<\/b> marbles did your opponent report drawing? ",
            "catchKey": -1,
            "catchResponse": -1,
            "catchTime": 1642983618105,
            "trialTime": 0
        },
        {
            "exptPart": "trial",
            "trialNumber": 39,
            "roleCurrent": "sender",
            "marblesSampled": 100,
            "probRed": 0.5,
            "lambda": 5,
            "drawnRed": 0,
            "reportedRed": 0,
            "inferredRed": 0,
            "playerTrialScore": -69,
            "oppTrialScore": 69,
            "playerTotalScore": -413,
            "oppTotalScore": 386,
            "waitTime": 2473.9551796862183,
            "responseTime": 1642983618105,
            "catchQuestion": "How many <b class=\"r\">red<\/b> marbles did your opponent report drawing? ",
            "catchKey": -1,
            "catchResponse": -1,
            "catchTime": 1642983618105,
            "trialTime": 0
        },
        {
            "exptPart": "trial",
            "trialNumber": 40,
            "roleCurrent": "receiver",
            "marblesSampled": 100,
            "probRed": 0.5,
            "lambda": 5,
            "drawnRed": 0,
            "reportedRed": 0,
            "inferredRed": 0,
            "playerTrialScore": -69,
            "oppTrialScore": 69,
            "playerTotalScore": -413,
            "oppTotalScore": 386,
            "waitTime": 5241.19679480774,
            "responseTime": 1642983618105,
            "catchQuestion": "How many <b class=\"r\">red<\/b> marbles did your opponent report drawing? ",
            "catchKey": -1,
            "catchResponse": -1,
            "catchTime": 1642983618105,
            "trialTime": 0
        },
        {
            "exptPart": "trial",
            "trialNumber": 41,
            "roleCurrent": "sender",
            "marblesSampled": 100,
            "probRed": 0.5,
            "lambda": 5,
            "drawnRed": 0,
            "reportedRed": 0,
            "inferredRed": 0,
            "playerTrialScore": -69,
            "oppTrialScore": 69,
            "playerTotalScore": -413,
            "oppTotalScore": 386,
            "waitTime": 2500.563259714835,
            "responseTime": 1642983618105,
            "catchQuestion": "How many <b class=\"r\">red<\/b> marbles did your opponent report drawing? ",
            "catchKey": -1,
            "catchResponse": -1,
            "catchTime": 1642983618105,
            "trialTime": 0
        },
        {
            "exptPart": "trial",
            "trialNumber": 42,
            "roleCurrent": "receiver",
            "marblesSampled": 100,
            "probRed": 0.5,
            "lambda": 5,
            "drawnRed": 0,
            "reportedRed": 0,
            "inferredRed": 0,
            "playerTrialScore": -69,
            "oppTrialScore": 69,
            "playerTotalScore": -413,
            "oppTotalScore": 386,
            "waitTime": 5531.901929419506,
            "responseTime": 1642983618105,
            "catchQuestion": "How many <b class=\"r\">red<\/b> marbles did your opponent report drawing? ",
            "catchKey": -1,
            "catchResponse": -1,
            "catchTime": 1642983618105,
            "trialTime": 0
        },
        {
            "exptPart": "trial",
            "trialNumber": 43,
            "roleCurrent": "sender",
            "marblesSampled": 100,
            "probRed": 0.5,
            "lambda": 5,
            "drawnRed": 0,
            "reportedRed": 0,
            "inferredRed": 0,
            "playerTrialScore": -69,
            "oppTrialScore": 69,
            "playerTotalScore": -413,
            "oppTotalScore": 386,
            "waitTime": 2983.4162819957833,
            "responseTime": 1642983618105,
            "catchQuestion": "How many <b class=\"r\">red<\/b> marbles did your opponent report drawing? ",
            "catchKey": -1,
            "catchResponse": -1,
            "catchTime": 1642983618105,
            "trialTime": 0
        },
        {
            "exptPart": "trial",
            "trialNumber": 44,
            "roleCurrent": "receiver",
            "marblesSampled": 100,
            "probRed": 0.5,
            "lambda": 5,
            "drawnRed": 0,
            "reportedRed": 0,
            "inferredRed": 0,
            "playerTrialScore": -69,
            "oppTrialScore": 69,
            "playerTotalScore": -413,
            "oppTotalScore": 386,
            "waitTime": 5999.883903053538,
            "responseTime": 1642983618105,
            "catchQuestion": "How many <b class=\"r\">red<\/b> marbles did your opponent report drawing? ",
            "catchKey": -1,
            "catchResponse": -1,
            "catchTime": 1642983618105,
            "trialTime": 0
        },
        {
            "exptPart": "trial",
            "trialNumber": 45,
            "roleCurrent": "sender",
            "marblesSampled": 100,
            "probRed": 0.5,
            "lambda": 5,
            "drawnRed": 0,
            "reportedRed": 0,
            "inferredRed": 0,
            "playerTrialScore": -69,
            "oppTrialScore": 69,
            "playerTotalScore": -413,
            "oppTotalScore": 386,
            "waitTime": 2738.27189284206,
            "responseTime": 1642983618105,
            "catchQuestion": "How many <b class=\"r\">red<\/b> marbles did your opponent report drawing? ",
            "catchKey": -1,
            "catchResponse": -1,
            "catchTime": 1642983618105,
            "trialTime": 0
        },
        {
            "exptPart": "trial",
            "trialNumber": 46,
            "roleCurrent": "receiver",
            "marblesSampled": 100,
            "probRed": 0.5,
            "lambda": 5,
            "drawnRed": 0,
            "reportedRed": 0,
            "inferredRed": 0,
            "playerTrialScore": -69,
            "oppTrialScore": 69,
            "playerTotalScore": -413,
            "oppTotalScore": 386,
            "waitTime": 7373.432662736007,
            "responseTime": 1642983618105,
            "catchQuestion": "How many <b class=\"r\">red<\/b> marbles did your opponent report drawing? ",
            "catchKey": -1,
            "catchResponse": -1,
            "catchTime": 1642983618105,
            "trialTime": 0
        },
        {
            "exptPart": "trial",
            "trialNumber": 47,
            "roleCurrent": "sender",
            "marblesSampled": 100,
            "probRed": 0.5,
            "lambda": 5,
            "drawnRed": 0,
            "reportedRed": 0,
            "inferredRed": 0,
            "playerTrialScore": -69,
            "oppTrialScore": 69,
            "playerTotalScore": -413,
            "oppTotalScore": 386,
            "waitTime": 2085.6760684911324,
            "responseTime": 1642983618105,
            "catchQuestion": "How many <b class=\"r\">red<\/b> marbles did your opponent report drawing? ",
            "catchKey": -1,
            "catchResponse": -1,
            "catchTime": 1642983618105,
            "trialTime": 0
        },
        {
            "exptPart": "trial",
            "trialNumber": 48,
            "roleCurrent": "receiver",
            "marblesSampled": 100,
            "probRed": 0.5,
            "lambda": 5,
            "drawnRed": 0,
            "reportedRed": 0,
            "inferredRed": 0,
            "playerTrialScore": -69,
            "oppTrialScore": 69,
            "playerTotalScore": -413,
            "oppTotalScore": 386,
            "waitTime": 5999.517921982759,
            "responseTime": 1642983618105,
            "catchQuestion": "How many <b class=\"r\">red<\/b> marbles did your opponent report drawing? ",
            "catchKey": -1,
            "catchResponse": -1,
            "catchTime": 1642983618105,
            "trialTime": 0
        },
        {
            "exptPart": "trial",
            "trialNumber": 49,
            "roleCurrent": "sender",
            "marblesSampled": 100,
            "probRed": 0.5,
            "lambda": 5,
            "drawnRed": 0,
            "reportedRed": 0,
            "inferredRed": 0,
            "playerTrialScore": -69,
            "oppTrialScore": 69,
            "playerTotalScore": -413,
            "oppTotalScore": 386,
            "waitTime": 2451.2960849765263,
            "responseTime": 1642983618105,
            "catchQuestion": "How many <b class=\"r\">red<\/b> marbles did your opponent report drawing? ",
            "catchKey": -1,
            "catchResponse": -1,
            "catchTime": 1642983618105,
            "trialTime": 0
        },
        {
            "exptPart": "trial",
            "trialNumber": 50,
            "roleCurrent": "receiver",
            "marblesSampled": 100,
            "probRed": 0.5,
            "lambda": 5,
            "drawnRed": 0,
            "reportedRed": 0,
            "inferredRed": 0,
            "playerTrialScore": -69,
            "oppTrialScore": 69,
            "playerTotalScore": -413,
            "oppTotalScore": 386,
            "waitTime": 5652.701114116622,
            "responseTime": 1642983618105,
            "catchQuestion": "How many <b class=\"r\">red<\/b> marbles did your opponent report drawing? ",
            "catchKey": -1,
            "catchResponse": -1,
            "catchTime": 1642983618105,
            "trialTime": 0
        },
        {
            "exptPart": "trial",
            "trialNumber": 51,
            "roleCurrent": "sender",
            "marblesSampled": 100,
            "probRed": 0.5,
            "lambda": 5,
            "drawnRed": 0,
            "reportedRed": 0,
            "inferredRed": 0,
            "playerTrialScore": -69,
            "oppTrialScore": 69,
            "playerTotalScore": -413,
            "oppTotalScore": 386,
            "waitTime": 2450.7826809212547,
            "responseTime": 1642983618105,
            "catchQuestion": "How many <b class=\"r\">red<\/b> marbles did your opponent report drawing? ",
            "catchKey": -1,
            "catchResponse": -1,
            "catchTime": 1642983618105,
            "trialTime": 0
        },
        {
            "exptPart": "trial",
            "trialNumber": 52,
            "roleCurrent": "receiver",
            "marblesSampled": 100,
            "probRed": 0.5,
            "lambda": 5,
            "drawnRed": 0,
            "reportedRed": 0,
            "inferredRed": 0,
            "playerTrialScore": -69,
            "oppTrialScore": 69,
            "playerTotalScore": -413,
            "oppTotalScore": 386,
            "waitTime": 6961.8887935664225,
            "responseTime": 1642983618105,
            "catchQuestion": "How many <b class=\"r\">red<\/b> marbles did your opponent report drawing? ",
            "catchKey": -1,
            "catchResponse": -1,
            "catchTime": 1642983618105,
            "trialTime": 0
        },
        {
            "exptPart": "trial",
            "trialNumber": 53,
            "roleCurrent": "sender",
            "marblesSampled": 100,
            "probRed": 0.5,
            "lambda": 5,
            "drawnRed": 0,
            "reportedRed": 0,
            "inferredRed": 0,
            "playerTrialScore": -69,
            "oppTrialScore": 69,
            "playerTotalScore": -413,
            "oppTotalScore": 386,
            "waitTime": 2211.930141345546,
            "responseTime": 1642983618105,
            "catchQuestion": "How many <b class=\"r\">red<\/b> marbles did your opponent report drawing? ",
            "catchKey": -1,
            "catchResponse": -1,
            "catchTime": 1642983618105,
            "trialTime": 0
        },
        {
            "exptPart": "trial",
            "trialNumber": 54,
            "roleCurrent": "receiver",
            "marblesSampled": 100,
            "probRed": 0.5,
            "lambda": 5,
            "drawnRed": 0,
            "reportedRed": 0,
            "inferredRed": 0,
            "playerTrialScore": -69,
            "oppTrialScore": 69,
            "playerTotalScore": -413,
            "oppTotalScore": 386,
            "waitTime": 5360.326965721406,
            "responseTime": 1642983618105,
            "catchQuestion": "How many <b class=\"r\">red<\/b> marbles did your opponent report drawing? ",
            "catchKey": -1,
            "catchResponse": -1,
            "catchTime": 1642983618105,
            "trialTime": 0
        },
        {
            "exptPart": "trial",
            "trialNumber": 55,
            "roleCurrent": "sender",
            "marblesSampled": 100,
            "probRed": 0.5,
            "lambda": 5,
            "drawnRed": 0,
            "reportedRed": 0,
            "inferredRed": 0,
            "playerTrialScore": -69,
            "oppTrialScore": 69,
            "playerTotalScore": -413,
            "oppTotalScore": 386,
            "waitTime": 2077.1509094529238,
            "responseTime": 1642983618105,
            "catchQuestion": "How many <b class=\"r\">red<\/b> marbles did your opponent report drawing? ",
            "catchKey": -1,
            "catchResponse": -1,
            "catchTime": 1642983618105,
            "trialTime": 0
        },
        {
            "exptPart": "trial",
            "trialNumber": 56,
            "roleCurrent": "receiver",
            "marblesSampled": 100,
            "probRed": 0.5,
            "lambda": 5,
            "drawnRed": 0,
            "reportedRed": 0,
            "inferredRed": 0,
            "playerTrialScore": -69,
            "oppTrialScore": 69,
            "playerTotalScore": -413,
            "oppTotalScore": 386,
            "waitTime": 7495.235400249974,
            "responseTime": 1642983618105,
            "catchQuestion": "How many <b class=\"r\">red<\/b> marbles did your opponent report drawing? ",
            "catchKey": -1,
            "catchResponse": -1,
            "catchTime": 1642983618105,
            "trialTime": 0
        },
        {
            "exptPart": "trial",
            "trialNumber": 57,
            "roleCurrent": "sender",
            "marblesSampled": 100,
            "probRed": 0.5,
            "lambda": 5,
            "drawnRed": 0,
            "reportedRed": 0,
            "inferredRed": 0,
            "playerTrialScore": -69,
            "oppTrialScore": 69,
            "playerTotalScore": -413,
            "oppTotalScore": 386,
            "waitTime": 2087.5869253411124,
            "responseTime": 1642983618105,
            "catchQuestion": "How many <b class=\"r\">red<\/b> marbles did your opponent report drawing? ",
            "catchKey": -1,
            "catchResponse": -1,
            "catchTime": 1642983618105,
            "trialTime": 0
        },
        {
            "exptPart": "trial",
            "trialNumber": 58,
            "roleCurrent": "receiver",
            "marblesSampled": 100,
            "probRed": 0.5,
            "lambda": 5,
            "drawnRed": 0,
            "reportedRed": 0,
            "inferredRed": 0,
            "playerTrialScore": -69,
            "oppTrialScore": 69,
            "playerTotalScore": -413,
            "oppTotalScore": 386,
            "waitTime": 5658.811192754027,
            "responseTime": 1642983618105,
            "catchQuestion": "How many <b class=\"r\">red<\/b> marbles did your opponent report drawing? ",
            "catchKey": -1,
            "catchResponse": -1,
            "catchTime": 1642983618105,
            "trialTime": 0
        },
        {
            "exptPart": "trial",
            "trialNumber": 59,
            "roleCurrent": "sender",
            "marblesSampled": 100,
            "probRed": 0.5,
            "lambda": 5,
            "drawnRed": 0,
            "reportedRed": 0,
            "inferredRed": 0,
            "playerTrialScore": -69,
            "oppTrialScore": 69,
            "playerTotalScore": -413,
            "oppTotalScore": 386,
            "waitTime": 3180.1510089886688,
            "responseTime": 1642983618105,
            "catchQuestion": "How many <b class=\"r\">red<\/b> marbles did your opponent report drawing? ",
            "catchKey": -1,
            "catchResponse": -1,
            "catchTime": 1642983618105,
            "trialTime": 0
        },
        {
            "exptPart": "trial",
            "trialNumber": 60,
            "roleCurrent": "receiver",
            "marblesSampled": 100,
            "probRed": 0.5,
            "lambda": 5,
            "drawnRed": 0,
            "reportedRed": 0,
            "inferredRed": 0,
            "playerTrialScore": -69,
            "oppTrialScore": 69,
            "playerTotalScore": -413,
            "oppTotalScore": 386,
            "waitTime": 5829.0341664467705,
            "responseTime": 1642983618105,
            "catchQuestion": "How many <b class=\"r\">red<\/b> marbles did your opponent report drawing? ",
            "catchKey": -1,
            "catchResponse": -1,
            "catchTime": 1642983618105,
            "trialTime": 0
        },
        {
            "exptPart": "trial",
            "trialNumber": 61,
            "roleCurrent": "sender",
            "marblesSampled": 100,
            "probRed": 0.5,
            "lambda": 5,
            "drawnRed": 0,
            "reportedRed": 0,
            "inferredRed": 0,
            "playerTrialScore": -69,
            "oppTrialScore": 69,
            "playerTotalScore": -413,
            "oppTotalScore": 386,
            "waitTime": 2763.697625178833,
            "responseTime": 1642983618105,
            "catchQuestion": "How many <b class=\"r\">red<\/b> marbles did your opponent report drawing? ",
            "catchKey": -1,
            "catchResponse": -1,
            "catchTime": 1642983618105,
            "trialTime": 0
        },
        {
            "exptPart": "trial",
            "trialNumber": 62,
            "roleCurrent": "receiver",
            "marblesSampled": 100,
            "probRed": 0.5,
            "lambda": 5,
            "drawnRed": 0,
            "reportedRed": 0,
            "inferredRed": 0,
            "playerTrialScore": -69,
            "oppTrialScore": 69,
            "playerTotalScore": -413,
            "oppTotalScore": 386,
            "waitTime": 5509.554351287177,
            "responseTime": 1642983618105,
            "catchQuestion": "How many <b class=\"r\">red<\/b> marbles did your opponent report drawing? ",
            "catchKey": -1,
            "catchResponse": -1,
            "catchTime": 1642983618105,
            "trialTime": 0
        },
        {
            "exptPart": "trial",
            "trialNumber": 63,
            "roleCurrent": "sender",
            "marblesSampled": 100,
            "probRed": 0.5,
            "lambda": 5,
            "drawnRed": 0,
            "reportedRed": 0,
            "inferredRed": 0,
            "playerTrialScore": -69,
            "oppTrialScore": 69,
            "playerTotalScore": -413,
            "oppTotalScore": 386,
            "waitTime": 2361.6360190426176,
            "responseTime": 1642983618105,
            "catchQuestion": "How many <b class=\"r\">red<\/b> marbles did your opponent report drawing? ",
            "catchKey": -1,
            "catchResponse": -1,
            "catchTime": 1642983618105,
            "trialTime": 0
        },
        {
            "exptPart": "trial",
            "trialNumber": 64,
            "roleCurrent": "receiver",
            "marblesSampled": 100,
            "probRed": 0.5,
            "lambda": 5,
            "drawnRed": 0,
            "reportedRed": 0,
            "inferredRed": 0,
            "playerTrialScore": -69,
            "oppTrialScore": 69,
            "playerTotalScore": -413,
            "oppTotalScore": 386,
            "waitTime": 6267.869490376184,
            "responseTime": 1642983618105,
            "catchQuestion": "How many <b class=\"r\">red<\/b> marbles did your opponent report drawing? ",
            "catchKey": -1,
            "catchResponse": -1,
            "catchTime": 1642983618105,
            "trialTime": 0
        },
        {
            "exptPart": "trial",
            "trialNumber": 65,
            "roleCurrent": "sender",
            "marblesSampled": 100,
            "probRed": 0.5,
            "lambda": 5,
            "drawnRed": 0,
            "reportedRed": 0,
            "inferredRed": 0,
            "playerTrialScore": -69,
            "oppTrialScore": 69,
            "playerTotalScore": -413,
            "oppTotalScore": 386,
            "waitTime": 2689.6618584503485,
            "responseTime": 1642983618105,
            "catchQuestion": "How many <b class=\"r\">red<\/b> marbles did your opponent report drawing? ",
            "catchKey": -1,
            "catchResponse": -1,
            "catchTime": 1642983618105,
            "trialTime": 0
        },
        {
            "exptPart": "trial",
            "trialNumber": 66,
            "roleCurrent": "receiver",
            "marblesSampled": 100,
            "probRed": 0.5,
            "lambda": 5,
            "drawnRed": 0,
            "reportedRed": 0,
            "inferredRed": 0,
            "playerTrialScore": -69,
            "oppTrialScore": 69,
            "playerTotalScore": -413,
            "oppTotalScore": 386,
            "waitTime": 5639.950516821602,
            "responseTime": 1642983618105,
            "catchQuestion": "How many <b class=\"r\">red<\/b> marbles did your opponent report drawing? ",
            "catchKey": -1,
            "catchResponse": -1,
            "catchTime": 1642983618105,
            "trialTime": 0
        },
        {
            "exptPart": "trial",
            "trialNumber": 67,
            "roleCurrent": "sender",
            "marblesSampled": 100,
            "probRed": 0.5,
            "lambda": 5,
            "drawnRed": 0,
            "reportedRed": 0,
            "inferredRed": 0,
            "playerTrialScore": -69,
            "oppTrialScore": 69,
            "playerTotalScore": -413,
            "oppTotalScore": 386,
            "waitTime": 2415.5033256296038,
            "responseTime": 1642983618105,
            "catchQuestion": "How many <b class=\"r\">red<\/b> marbles did your opponent report drawing? ",
            "catchKey": -1,
            "catchResponse": -1,
            "catchTime": 1642983618105,
            "trialTime": 0
        },
        {
            "exptPart": "trial",
            "trialNumber": 68,
            "roleCurrent": "receiver",
            "marblesSampled": 100,
            "probRed": 0.5,
            "lambda": 5,
            "drawnRed": 0,
            "reportedRed": 0,
            "inferredRed": 0,
            "playerTrialScore": -69,
            "oppTrialScore": 69,
            "playerTotalScore": -413,
            "oppTotalScore": 386,
            "waitTime": 6236.6328768709245,
            "responseTime": 1642983618105,
            "catchQuestion": "How many <b class=\"r\">red<\/b> marbles did your opponent report drawing? ",
            "catchKey": -1,
            "catchResponse": -1,
            "catchTime": 1642983618105,
            "trialTime": 0
        },
        {
            "exptPart": "trial",
            "trialNumber": 69,
            "roleCurrent": "sender",
            "marblesSampled": 100,
            "probRed": 0.5,
            "lambda": 5,
            "drawnRed": 0,
            "reportedRed": 0,
            "inferredRed": 0,
            "playerTrialScore": -69,
            "oppTrialScore": 69,
            "playerTotalScore": -413,
            "oppTotalScore": 386,
            "waitTime": 2408.108219312826,
            "responseTime": 1642983618105,
            "catchQuestion": "How many <b class=\"r\">red<\/b> marbles did your opponent report drawing? ",
            "catchKey": -1,
            "catchResponse": -1,
            "catchTime": 1642983618105,
            "trialTime": 0
        },
        {
            "exptPart": "trial",
            "trialNumber": 70,
            "roleCurrent": "receiver",
            "marblesSampled": 100,
            "probRed": 0.5,
            "lambda": 5,
            "drawnRed": 0,
            "reportedRed": 0,
            "inferredRed": 0,
            "playerTrialScore": -69,
            "oppTrialScore": 69,
            "playerTotalScore": -413,
            "oppTotalScore": 386,
            "waitTime": 7477.618192646573,
            "responseTime": 1642983618105,
            "catchQuestion": "How many <b class=\"r\">red<\/b> marbles did your opponent report drawing? ",
            "catchKey": -1,
            "catchResponse": -1,
            "catchTime": 1642983618105,
            "trialTime": 0
        },
        {
            "exptPart": "trial",
            "trialNumber": 71,
            "roleCurrent": "sender",
            "marblesSampled": 100,
            "probRed": 0.5,
            "lambda": 5,
            "drawnRed": 0,
            "reportedRed": 0,
            "inferredRed": 0,
            "playerTrialScore": -69,
            "oppTrialScore": 69,
            "playerTotalScore": -413,
            "oppTotalScore": 386,
            "waitTime": 2285.5161635857585,
            "responseTime": 1642983618105,
            "catchQuestion": "How many <b class=\"r\">red<\/b> marbles did your opponent report drawing? ",
            "catchKey": -1,
            "catchResponse": -1,
            "catchTime": 1642983618105,
            "trialTime": 0
        },
        {
            "exptPart": "trial",
            "trialNumber": 72,
            "roleCurrent": "receiver",
            "marblesSampled": 100,
            "probRed": 0.5,
            "lambda": 5,
            "drawnRed": 0,
            "reportedRed": 0,
            "inferredRed": 0,
            "playerTrialScore": -69,
            "oppTrialScore": 69,
            "playerTotalScore": -413,
            "oppTotalScore": 386,
            "waitTime": 6974.696034192695,
            "responseTime": 1642983618105,
            "catchQuestion": "How many <b class=\"r\">red<\/b> marbles did your opponent report drawing? ",
            "catchKey": -1,
            "catchResponse": -1,
            "catchTime": 1642983618105,
            "trialTime": 0
        },
        {
            "exptPart": "trial",
            "trialNumber": 73,
            "roleCurrent": "sender",
            "marblesSampled": 100,
            "probRed": 0.5,
            "lambda": 5,
            "drawnRed": 0,
            "reportedRed": 0,
            "inferredRed": 0,
            "playerTrialScore": -69,
            "oppTrialScore": 69,
            "playerTotalScore": -413,
            "oppTotalScore": 386,
            "waitTime": 2729.278641298045,
            "responseTime": 1642983618105,
            "catchQuestion": "How many <b class=\"r\">red<\/b> marbles did your opponent report drawing? ",
            "catchKey": -1,
            "catchResponse": -1,
            "catchTime": 1642983618105,
            "trialTime": 0
        },
        {
            "exptPart": "trial",
            "trialNumber": 74,
            "roleCurrent": "receiver",
            "marblesSampled": 100,
            "probRed": 0.5,
            "lambda": 5,
            "drawnRed": 0,
            "reportedRed": 0,
            "inferredRed": 0,
            "playerTrialScore": -69,
            "oppTrialScore": 69,
            "playerTotalScore": -413,
            "oppTotalScore": 386,
            "waitTime": 5316.605212108404,
            "responseTime": 1642983618105,
            "catchQuestion": "How many <b class=\"r\">red<\/b> marbles did your opponent report drawing? ",
            "catchKey": -1,
            "catchResponse": -1,
            "catchTime": 1642983618105,
            "trialTime": 0
        },
        {
            "exptPart": "trial",
            "trialNumber": 75,
            "roleCurrent": "sender",
            "marblesSampled": 100,
            "probRed": 0.5,
            "lambda": 5,
            "drawnRed": 0,
            "reportedRed": 0,
            "inferredRed": 0,
            "playerTrialScore": -69,
            "oppTrialScore": 69,
            "playerTotalScore": -413,
            "oppTotalScore": 386,
            "waitTime": 2517.236411376489,
            "responseTime": 1642983618105,
            "catchQuestion": "How many <b class=\"r\">red<\/b> marbles did your opponent report drawing? ",
            "catchKey": -1,
            "catchResponse": -1,
            "catchTime": 1642983618105,
            "trialTime": 0
        },
        {
            "exptPart": "trial",
            "trialNumber": 76,
            "roleCurrent": "receiver",
            "marblesSampled": 100,
            "probRed": 0.5,
            "lambda": 5,
            "drawnRed": 0,
            "reportedRed": 0,
            "inferredRed": 0,
            "playerTrialScore": -69,
            "oppTrialScore": 69,
            "playerTotalScore": -413,
            "oppTotalScore": 386,
            "waitTime": 6254.046018347961,
            "responseTime": 1642983618105,
            "catchQuestion": "How many <b class=\"r\">red<\/b> marbles did your opponent report drawing? ",
            "catchKey": -1,
            "catchResponse": -1,
            "catchTime": 1642983618105,
            "trialTime": 0
        },
        {
            "exptPart": "trial",
            "trialNumber": 77,
            "roleCurrent": "sender",
            "marblesSampled": 100,
            "probRed": 0.5,
            "lambda": 5,
            "drawnRed": 0,
            "reportedRed": 0,
            "inferredRed": 0,
            "playerTrialScore": -69,
            "oppTrialScore": 69,
            "playerTotalScore": -413,
            "oppTotalScore": 386,
            "waitTime": 2380.0272876473036,
            "responseTime": 1642983618105,
            "catchQuestion": "How many <b class=\"r\">red<\/b> marbles did your opponent report drawing? ",
            "catchKey": -1,
            "catchResponse": -1,
            "catchTime": 1642983618105,
            "trialTime": 0
        },
        {
            "exptPart": "trial",
            "trialNumber": 78,
            "roleCurrent": "receiver",
            "marblesSampled": 100,
            "probRed": 0.5,
            "lambda": 5,
            "drawnRed": 0,
            "reportedRed": 0,
            "inferredRed": 0,
            "playerTrialScore": -69,
            "oppTrialScore": 69,
            "playerTotalScore": -413,
            "oppTotalScore": 386,
            "waitTime": 6760.55076342941,
            "responseTime": 1642983618105,
            "catchQuestion": "How many <b class=\"r\">red<\/b> marbles did your opponent report drawing? ",
            "catchKey": -1,
            "catchResponse": -1,
            "catchTime": 1642983618105,
            "trialTime": 0
        },
        {
            "exptPart": "trial",
            "trialNumber": 79,
            "roleCurrent": "sender",
            "marblesSampled": 100,
            "probRed": 0.5,
            "lambda": 5,
            "drawnRed": 0,
            "reportedRed": 0,
            "inferredRed": 0,
            "playerTrialScore": -69,
            "oppTrialScore": 69,
            "playerTotalScore": -413,
            "oppTotalScore": 386,
            "waitTime": 2336.644056614695,
            "responseTime": 1642983618105,
            "catchQuestion": "How many <b class=\"r\">red<\/b> marbles did your opponent report drawing? ",
            "catchKey": -1,
            "catchResponse": -1,
            "catchTime": 1642983618105,
            "trialTime": 0
        },
        {
            "exptPart": "trial",
            "trialNumber": 80,
            "roleCurrent": "receiver",
            "marblesSampled": 100,
            "probRed": 0.5,
            "lambda": 5,
            "drawnRed": 0,
            "reportedRed": 0,
            "inferredRed": 0,
            "playerTrialScore": -69,
            "oppTrialScore": 69,
            "playerTotalScore": -413,
            "oppTotalScore": 386,
            "waitTime": 6375.542508983617,
            "responseTime": 1642983618105,
            "catchQuestion": "How many <b class=\"r\">red<\/b> marbles did your opponent report drawing? ",
            "catchKey": -1,
            "catchResponse": -1,
            "catchTime": 1642983618105,
            "trialTime": 0
        },
        {
            "exptPart": "trial",
            "trialNumber": 81,
            "roleCurrent": "sender",
            "marblesSampled": 100,
            "probRed": 0.5,
            "lambda": 5,
            "drawnRed": 0,
            "reportedRed": 0,
            "inferredRed": 0,
            "playerTrialScore": -69,
            "oppTrialScore": 69,
            "playerTotalScore": -413,
            "oppTotalScore": 386,
            "waitTime": 2651.92132930235,
            "responseTime": 1642983618105,
            "catchQuestion": "How many <b class=\"r\">red<\/b> marbles did your opponent report drawing? ",
            "catchKey": -1,
            "catchResponse": -1,
            "catchTime": 1642983618105,
            "trialTime": 0
        },
        {
            "exptPart": "trial",
            "trialNumber": 82,
            "roleCurrent": "receiver",
            "marblesSampled": 100,
            "probRed": 0.5,
            "lambda": 5,
            "drawnRed": 0,
            "reportedRed": 0,
            "inferredRed": 0,
            "playerTrialScore": -69,
            "oppTrialScore": 69,
            "playerTotalScore": -413,
            "oppTotalScore": 386,
            "waitTime": 7292.317296259382,
            "responseTime": 1642983618105,
            "catchQuestion": "How many <b class=\"r\">red<\/b> marbles did your opponent report drawing? ",
            "catchKey": -1,
            "catchResponse": -1,
            "catchTime": 1642983618105,
            "trialTime": 0
        },
        {
            "exptPart": "trial",
            "trialNumber": 83,
            "roleCurrent": "sender",
            "marblesSampled": 100,
            "probRed": 0.5,
            "lambda": 5,
            "drawnRed": 0,
            "reportedRed": 0,
            "inferredRed": 0,
            "playerTrialScore": -69,
            "oppTrialScore": 69,
            "playerTotalScore": -413,
            "oppTotalScore": 386,
            "waitTime": 2106.0232695315535,
            "responseTime": 1642983618105,
            "catchQuestion": "How many <b class=\"r\">red<\/b> marbles did your opponent report drawing? ",
            "catchKey": -1,
            "catchResponse": -1,
            "catchTime": 1642983618105,
            "trialTime": 0
        },
        {
            "exptPart": "trial",
            "trialNumber": 84,
            "roleCurrent": "receiver",
            "marblesSampled": 100,
            "probRed": 0.5,
            "lambda": 5,
            "drawnRed": 0,
            "reportedRed": 0,
            "inferredRed": 0,
            "playerTrialScore": -69,
            "oppTrialScore": 69,
            "playerTotalScore": -413,
            "oppTotalScore": 386,
            "waitTime": 6121.99619157075,
            "responseTime": 1642983618105,
            "catchQuestion": "How many <b class=\"r\">red<\/b> marbles did your opponent report drawing? ",
            "catchKey": -1,
            "catchResponse": -1,
            "catchTime": 1642983618105,
            "trialTime": 0
        },
        {
            "exptPart": "trial",
            "trialNumber": 85,
            "roleCurrent": "sender",
            "marblesSampled": 100,
            "probRed": 0.5,
            "lambda": 5,
            "drawnRed": 0,
            "reportedRed": 0,
            "inferredRed": 0,
            "playerTrialScore": -69,
            "oppTrialScore": 69,
            "playerTotalScore": -413,
            "oppTotalScore": 386,
            "waitTime": 2418.1428108351784,
            "responseTime": 1642983618105,
            "catchQuestion": "How many <b class=\"r\">red<\/b> marbles did your opponent report drawing? ",
            "catchKey": -1,
            "catchResponse": -1,
            "catchTime": 1642983618105,
            "trialTime": 0
        },
        {
            "exptPart": "trial",
            "trialNumber": 86,
            "roleCurrent": "receiver",
            "marblesSampled": 100,
            "probRed": 0.5,
            "lambda": 5,
            "drawnRed": 0,
            "reportedRed": 0,
            "inferredRed": 0,
            "playerTrialScore": -69,
            "oppTrialScore": 69,
            "playerTotalScore": -413,
            "oppTotalScore": 386,
            "waitTime": 6615.0189288787715,
            "responseTime": 1642983618105,
            "catchQuestion": "How many <b class=\"r\">red<\/b> marbles did your opponent report drawing? ",
            "catchKey": -1,
            "catchResponse": -1,
            "catchTime": 1642983618105,
            "trialTime": 0
        },
        {
            "exptPart": "trial",
            "trialNumber": 87,
            "roleCurrent": "sender",
            "marblesSampled": 100,
            "probRed": 0.5,
            "lambda": 5,
            "drawnRed": 0,
            "reportedRed": 0,
            "inferredRed": 0,
            "playerTrialScore": -69,
            "oppTrialScore": 69,
            "playerTotalScore": -413,
            "oppTotalScore": 386,
            "waitTime": 2713.3624126581863,
            "responseTime": 1642983618105,
            "catchQuestion": "How many <b class=\"r\">red<\/b> marbles did your opponent report drawing? ",
            "catchKey": -1,
            "catchResponse": -1,
            "catchTime": 1642983618105,
            "trialTime": 0
        },
        {
            "exptPart": "trial",
            "trialNumber": 88,
            "roleCurrent": "receiver",
            "marblesSampled": 100,
            "probRed": 0.5,
            "lambda": 5,
            "drawnRed": 0,
            "reportedRed": 0,
            "inferredRed": 0,
            "playerTrialScore": -69,
            "oppTrialScore": 69,
            "playerTotalScore": -413,
            "oppTotalScore": 386,
            "waitTime": 6055.836483969952,
            "responseTime": 1642983618105,
            "catchQuestion": "How many <b class=\"r\">red<\/b> marbles did your opponent report drawing? ",
            "catchKey": -1,
            "catchResponse": -1,
            "catchTime": 1642983618105,
            "trialTime": 0
        },
        {
            "exptPart": "trial",
            "trialNumber": 89,
            "roleCurrent": "sender",
            "marblesSampled": 100,
            "probRed": 0.5,
            "lambda": 5,
            "drawnRed": 0,
            "reportedRed": 0,
            "inferredRed": 0,
            "playerTrialScore": -69,
            "oppTrialScore": 69,
            "playerTotalScore": -413,
            "oppTotalScore": 386,
            "waitTime": 2147.5601725031865,
            "responseTime": 1642983618105,
            "catchQuestion": "How many <b class=\"r\">red<\/b> marbles did your opponent report drawing? ",
            "catchKey": -1,
            "catchResponse": -1,
            "catchTime": 1642983618105,
            "trialTime": 0
        },
        {
            "exptPart": "trial",
            "trialNumber": 90,
            "roleCurrent": "receiver",
            "marblesSampled": 100,
            "probRed": 0.5,
            "lambda": 5,
            "drawnRed": 0,
            "reportedRed": 0,
            "inferredRed": 0,
            "playerTrialScore": -69,
            "oppTrialScore": 69,
            "playerTotalScore": -413,
            "oppTotalScore": 386,
            "waitTime": 6403.963306872278,
            "responseTime": 1642983618105,
            "catchQuestion": "How many <b class=\"r\">red<\/b> marbles did your opponent report drawing? ",
            "catchKey": -1,
            "catchResponse": -1,
            "catchTime": 1642983618105,
            "trialTime": 0
        },
        {
            "exptPart": "trial",
            "trialNumber": 91,
            "roleCurrent": "sender",
            "marblesSampled": 100,
            "probRed": 0.5,
            "lambda": 5,
            "drawnRed": 0,
            "reportedRed": 0,
            "inferredRed": 0,
            "playerTrialScore": -69,
            "oppTrialScore": 69,
            "playerTotalScore": -413,
            "oppTotalScore": 386,
            "waitTime": 2609.1030934579458,
            "responseTime": 1642983618105,
            "catchQuestion": "How many <b class=\"r\">red<\/b> marbles did your opponent report drawing? ",
            "catchKey": -1,
            "catchResponse": -1,
            "catchTime": 1642983618105,
            "trialTime": 0
        },
        {
            "exptPart": "trial",
            "trialNumber": 92,
            "roleCurrent": "receiver",
            "marblesSampled": 100,
            "probRed": 0.5,
            "lambda": 5,
            "drawnRed": 0,
            "reportedRed": 0,
            "inferredRed": 0,
            "playerTrialScore": -69,
            "oppTrialScore": 69,
            "playerTotalScore": -413,
            "oppTotalScore": 386,
            "waitTime": 5212.95175646809,
            "responseTime": 1642983618105,
            "catchQuestion": "How many <b class=\"r\">red<\/b> marbles did your opponent report drawing? ",
            "catchKey": -1,
            "catchResponse": -1,
            "catchTime": 1642983618105,
            "trialTime": 0
        },
        {
            "exptPart": "trial",
            "trialNumber": 93,
            "roleCurrent": "sender",
            "marblesSampled": 100,
            "probRed": 0.5,
            "lambda": 5,
            "drawnRed": 0,
            "reportedRed": 0,
            "inferredRed": 0,
            "playerTrialScore": -69,
            "oppTrialScore": 69,
            "playerTotalScore": -413,
            "oppTotalScore": 386,
            "waitTime": 2167.978863970777,
            "responseTime": 1642983618105,
            "catchQuestion": "How many <b class=\"r\">red<\/b> marbles did your opponent report drawing? ",
            "catchKey": -1,
            "catchResponse": -1,
            "catchTime": 1642983618105,
            "trialTime": 0
        },
        {
            "exptPart": "trial",
            "trialNumber": 94,
            "roleCurrent": "receiver",
            "marblesSampled": 100,
            "probRed": 0.5,
            "lambda": 5,
            "drawnRed": 0,
            "reportedRed": 0,
            "inferredRed": 0,
            "playerTrialScore": -69,
            "oppTrialScore": 69,
            "playerTotalScore": -413,
            "oppTotalScore": 386,
            "waitTime": 5649.750347009065,
            "responseTime": 1642983618105,
            "catchQuestion": "How many <b class=\"r\">red<\/b> marbles did your opponent report drawing? ",
            "catchKey": -1,
            "catchResponse": -1,
            "catchTime": 1642983618105,
            "trialTime": 0
        },
        {
            "exptPart": "trial",
            "trialNumber": 95,
            "roleCurrent": "sender",
            "marblesSampled": 100,
            "probRed": 0.5,
            "lambda": 5,
            "drawnRed": 0,
            "reportedRed": 0,
            "inferredRed": 0,
            "playerTrialScore": -69,
            "oppTrialScore": 69,
            "playerTotalScore": -413,
            "oppTotalScore": 386,
            "waitTime": 2923.035876801936,
            "responseTime": 1642983618105,
            "catchQuestion": "How many <b class=\"r\">red<\/b> marbles did your opponent report drawing? ",
            "catchKey": -1,
            "catchResponse": -1,
            "catchTime": 1642983618105,
            "trialTime": 0
        },
        {
            "exptPart": "trial",
            "trialNumber": 96,
            "roleCurrent": "receiver",
            "marblesSampled": 100,
            "probRed": 0.5,
            "lambda": 5,
            "drawnRed": 0,
            "reportedRed": 0,
            "inferredRed": 0,
            "playerTrialScore": -69,
            "oppTrialScore": 69,
            "playerTotalScore": -413,
            "oppTotalScore": 386,
            "waitTime": 6952.981809605479,
            "responseTime": 1642983618105,
            "catchQuestion": "How many <b class=\"r\">red<\/b> marbles did your opponent report drawing? ",
            "catchKey": -1,
            "catchResponse": -1,
            "catchTime": 1642983618105,
            "trialTime": 0
        },
        {
            "exptPart": "trial",
            "trialNumber": 97,
            "roleCurrent": "sender",
            "marblesSampled": 100,
            "probRed": 0.5,
            "lambda": 5,
            "drawnRed": 0,
            "reportedRed": 0,
            "inferredRed": 0,
            "playerTrialScore": -69,
            "oppTrialScore": 69,
            "playerTotalScore": -413,
            "oppTotalScore": 386,
            "waitTime": 2084.541178706875,
            "responseTime": 1642983618105,
            "catchQuestion": "How many <b class=\"r\">red<\/b> marbles did your opponent report drawing? ",
            "catchKey": -1,
            "catchResponse": -1,
            "catchTime": 1642983618105,
            "trialTime": 0
        },
        {
            "exptPart": "trial",
            "trialNumber": 98,
            "roleCurrent": "receiver",
            "marblesSampled": 100,
            "probRed": 0.5,
            "lambda": 5,
            "drawnRed": 0,
            "reportedRed": 0,
            "inferredRed": 0,
            "playerTrialScore": -69,
            "oppTrialScore": 69,
            "playerTotalScore": -413,
            "oppTotalScore": 386,
            "waitTime": 5480.119582001535,
            "responseTime": 1642983618105,
            "catchQuestion": "How many <b class=\"r\">red<\/b> marbles did your opponent report drawing? ",
            "catchKey": -1,
            "catchResponse": -1,
            "catchTime": 1642983618105,
            "trialTime": 0
        },
        {
            "exptPart": "trial",
            "trialNumber": 99,
            "roleCurrent": "sender",
            "marblesSampled": 100,
            "probRed": 0.5,
            "lambda": 5,
            "drawnRed": 0,
            "reportedRed": 0,
            "inferredRed": 0,
            "playerTrialScore": -69,
            "oppTrialScore": 69,
            "playerTotalScore": -413,
            "oppTotalScore": 386,
            "waitTime": 2092.958930315295,
            "responseTime": 1642983618105,
            "catchQuestion": "How many <b class=\"r\">red<\/b> marbles did your opponent report drawing? ",
            "catchKey": -1,
            "catchResponse": -1,
            "catchTime": 1642983618105,
            "trialTime": 0
        },
        {
            "exptPart": "trial",
            "trialNumber": 100,
            "roleCurrent": "receiver",
            "marblesSampled": 100,
            "probRed": 0.5,
            "lambda": 5,
            "drawnRed": 0,
            "reportedRed": 0,
            "inferredRed": 0,
            "playerTrialScore": -69,
            "oppTrialScore": 69,
            "playerTotalScore": -413,
            "oppTotalScore": 386,
            "waitTime": 5192.045790541461,
            "responseTime": 1642983618105,
            "catchQuestion": "How many <b class=\"r\">red<\/b> marbles did your opponent report drawing? ",
            "catchKey": -1,
            "catchResponse": -1,
            "catchTime": 1642983618105,
            "trialTime": 0
        },
        {
            "exptPart": "trial",
            "trialNumber": 101,
            "roleCurrent": "receiver",
            "marblesSampled": 100,
            "probRed": 0.5,
            "lambda": 5,
            "drawnRed": 0,
            "reportedRed": 0,
            "inferredRed": 0,
            "playerTrialScore": -69,
            "oppTrialScore": 69,
            "playerTotalScore": -413,
            "oppTotalScore": 386,
            "waitTime": 5192.045790541461,
            "responseTime": 1642983618105,
            "catchQuestion": "How many <b class=\"r\">red<\/b> marbles did your opponent report drawing? ",
            "catchKey": -1,
            "catchResponse": -1,
            "catchTime": 1642983618105,
            "trialTime": 0
        },
        {
            "exptPart": "trial",
            "trialNumber": 102,
            "roleCurrent": "receiver",
            "marblesSampled": 100,
            "probRed": 0.5,
            "lambda": 5,
            "drawnRed": 0,
            "reportedRed": 0,
            "inferredRed": 0,
            "playerTrialScore": -69,
            "oppTrialScore": 69,
            "playerTotalScore": -413,
            "oppTotalScore": 386,
            "waitTime": 5192.045790541461,
            "responseTime": 1642983618105,
            "catchQuestion": "How many <b class=\"r\">red<\/b> marbles did your opponent report drawing? ",
            "catchKey": -1,
            "catchResponse": -1,
            "catchTime": 1642983618105,
            "trialTime": 0
        },
        {
            "exptPart": "trial",
            "trialNumber": 103,
            "roleCurrent": "receiver",
            "marblesSampled": 100,
            "probRed": 0.5,
            "lambda": 5,
            "drawnRed": 0,
            "reportedRed": 0,
            "inferredRed": 0,
            "playerTrialScore": -69,
            "oppTrialScore": 69,
            "playerTotalScore": -413,
            "oppTotalScore": 386,
            "waitTime": 5192.045790541461,
            "responseTime": 1642983618105,
            "catchQuestion": "How many <b class=\"r\">red<\/b> marbles did your opponent report drawing? ",
            "catchKey": -1,
            "catchResponse": -1,
            "catchTime": 1642983618105,
            "trialTime": 0
        },
        {
            "exptPart": "trial",
            "trialNumber": 104,
            "roleCurrent": "receiver",
            "marblesSampled": 100,
            "probRed": 0.5,
            "lambda": 5,
            "drawnRed": 0,
            "reportedRed": 0,
            "inferredRed": 0,
            "playerTrialScore": -69,
            "oppTrialScore": 69,
            "playerTotalScore": -413,
            "oppTotalScore": 386,
            "waitTime": 5192.045790541461,
            "responseTime": 1642983618105,
            "catchQuestion": "How many <b class=\"r\">red<\/b> marbles did your opponent report drawing? ",
            "catchKey": -1,
            "catchResponse": -1,
            "catchTime": 1642983618105,
            "trialTime": 0
        },
        {
            "exptPart": "trial",
            "trialNumber": 105,
            "roleCurrent": "receiver",
            "marblesSampled": 100,
            "probRed": 0.5,
            "lambda": 5,
            "drawnRed": 0,
            "reportedRed": 0,
            "inferredRed": 0,
            "playerTrialScore": -69,
            "oppTrialScore": 69,
            "playerTotalScore": -413,
            "oppTotalScore": 386,
            "waitTime": 5192.045790541461,
            "responseTime": 1642983618105,
            "catchQuestion": "How many <b class=\"r\">red<\/b> marbles did your opponent report drawing? ",
            "catchKey": -1,
            "catchResponse": -1,
            "catchTime": 1642983618105,
            "trialTime": 0
        },
        {
            "exptPart": "trial",
            "trialNumber": 106,
            "roleCurrent": "receiver",
            "marblesSampled": 100,
            "probRed": 0.5,
            "lambda": 5,
            "drawnRed": 0,
            "reportedRed": 0,
            "inferredRed": 0,
            "playerTrialScore": -69,
            "oppTrialScore": 69,
            "playerTotalScore": -413,
            "oppTotalScore": 386,
            "waitTime": 5192.045790541461,
            "responseTime": 1642983618105,
            "catchQuestion": "How many <b class=\"r\">red<\/b> marbles did your opponent report drawing? ",
            "catchKey": -1,
            "catchResponse": -1,
            "catchTime": 1642983618105,
            "trialTime": 0
        },
        {
            "exptPart": "trial",
            "trialNumber": 107,
            "roleCurrent": "receiver",
            "marblesSampled": 100,
            "probRed": 0.5,
            "lambda": 5,
            "drawnRed": 0,
            "reportedRed": 0,
            "inferredRed": 0,
            "playerTrialScore": -69,
            "oppTrialScore": 69,
            "playerTotalScore": -413,
            "oppTotalScore": 386,
            "waitTime": 5192.045790541461,
            "responseTime": 1642983618105,
            "catchQuestion": "How many <b class=\"r\">red<\/b> marbles did your opponent report drawing? ",
            "catchKey": -1,
            "catchResponse": -1,
            "catchTime": 1642983618105,
            "trialTime": 0
        },
        {
            "exptPart": "trial",
            "trialNumber": 108,
            "roleCurrent": "receiver",
            "marblesSampled": 100,
            "probRed": 0.5,
            "lambda": 5,
            "drawnRed": 0,
            "reportedRed": 0,
            "inferredRed": 0,
            "playerTrialScore": -69,
            "oppTrialScore": 69,
            "playerTotalScore": -413,
            "oppTotalScore": 386,
            "waitTime": 5192.045790541461,
            "responseTime": 1642983618105,
            "catchQuestion": "How many <b class=\"r\">red<\/b> marbles did your opponent report drawing? ",
            "catchKey": -1,
            "catchResponse": -1,
            "catchTime": 1642983618105,
            "trialTime": 0
        },
        {
            "exptPart": "trial",
            "trialNumber": 109,
            "roleCurrent": "receiver",
            "marblesSampled": 100,
            "probRed": 0.5,
            "lambda": 5,
            "drawnRed": 0,
            "reportedRed": 0,
            "inferredRed": 0,
            "playerTrialScore": -69,
            "oppTrialScore": 69,
            "playerTotalScore": -413,
            "oppTotalScore": 386,
            "waitTime": 5192.045790541461,
            "responseTime": 1642983618105,
            "catchQuestion": "How many <b class=\"r\">red<\/b> marbles did your opponent report drawing? ",
            "catchKey": -1,
            "catchResponse": -1,
            "catchTime": 1642983618105,
            "trialTime": 0
        },
        {
            "exptPart": "trial",
            "trialNumber": 110,
            "roleCurrent": "receiver",
            "marblesSampled": 100,
            "probRed": 0.5,
            "lambda": 5,
            "drawnRed": 0,
            "reportedRed": 0,
            "inferredRed": 0,
            "playerTrialScore": -69,
            "oppTrialScore": 69,
            "playerTotalScore": -413,
            "oppTotalScore": 386,
            "waitTime": 5192.045790541461,
            "responseTime": 1642983618105,
            "catchQuestion": "How many <b class=\"r\">red<\/b> marbles did your opponent report drawing? ",
            "catchKey": -1,
            "catchResponse": -1,
            "catchTime": 1642983618105,
            "trialTime": 0
        },
        {
            "exptPart": "trial",
            "trialNumber": 111,
            "roleCurrent": "receiver",
            "marblesSampled": 100,
            "probRed": 0.5,
            "lambda": 5,
            "drawnRed": 0,
            "reportedRed": 0,
            "inferredRed": 0,
            "playerTrialScore": -69,
            "oppTrialScore": 69,
            "playerTotalScore": -413,
            "oppTotalScore": 386,
            "waitTime": 5192.045790541461,
            "responseTime": 1642983618105,
            "catchQuestion": "How many <b class=\"r\">red<\/b> marbles did your opponent report drawing? ",
            "catchKey": -1,
            "catchResponse": -1,
            "catchTime": 1642983618105,
            "trialTime": 0
        },
        {
            "exptPart": "trial",
            "trialNumber": 112,
            "roleCurrent": "receiver",
            "marblesSampled": 100,
            "probRed": 0.5,
            "lambda": 5,
            "drawnRed": 0,
            "reportedRed": 0,
            "inferredRed": 0,
            "playerTrialScore": -69,
            "oppTrialScore": 69,
            "playerTotalScore": -413,
            "oppTotalScore": 386,
            "waitTime": 5192.045790541461,
            "responseTime": 1642983618105,
            "catchQuestion": "How many <b class=\"r\">red<\/b> marbles did your opponent report drawing? ",
            "catchKey": -1,
            "catchResponse": -1,
            "catchTime": 1642983618105,
            "trialTime": 0
        },
        {
            "exptPart": "trial",
            "trialNumber": 113,
            "roleCurrent": "receiver",
            "marblesSampled": 100,
            "probRed": 0.5,
            "lambda": 5,
            "drawnRed": 0,
            "reportedRed": 0,
            "inferredRed": 0,
            "playerTrialScore": -69,
            "oppTrialScore": 69,
            "playerTotalScore": -413,
            "oppTotalScore": 386,
            "waitTime": 5192.045790541461,
            "responseTime": 1642983618105,
            "catchQuestion": "How many <b class=\"r\">red<\/b> marbles did your opponent report drawing? ",
            "catchKey": -1,
            "catchResponse": -1,
            "catchTime": 1642983618105,
            "trialTime": 0
        },
        {
            "exptPart": "trial",
            "trialNumber": 114,
            "roleCurrent": "receiver",
            "marblesSampled": 100,
            "probRed": 0.5,
            "lambda": 5,
            "drawnRed": 0,
            "reportedRed": 0,
            "inferredRed": 0,
            "playerTrialScore": -69,
            "oppTrialScore": 69,
            "playerTotalScore": -413,
            "oppTotalScore": 386,
            "waitTime": 5192.045790541461,
            "responseTime": 1642983618105,
            "catchQuestion": "How many <b class=\"r\">red<\/b> marbles did your opponent report drawing? ",
            "catchKey": -1,
            "catchResponse": -1,
            "catchTime": 1642983618105,
            "trialTime": 0
        },
        {
            "exptPart": "trial",
            "trialNumber": 115,
            "roleCurrent": "receiver",
            "marblesSampled": 100,
            "probRed": 0.5,
            "lambda": 5,
            "drawnRed": 0,
            "reportedRed": 0,
            "inferredRed": 0,
            "playerTrialScore": -69,
            "oppTrialScore": 69,
            "playerTotalScore": -413,
            "oppTotalScore": 386,
            "waitTime": 5192.045790541461,
            "responseTime": 1642983618105,
            "catchQuestion": "How many <b class=\"r\">red<\/b> marbles did your opponent report drawing? ",
            "catchKey": -1,
            "catchResponse": -1,
            "catchTime": 1642983618105,
            "trialTime": 0
        },
        {
            "exptPart": "trial",
            "trialNumber": 116,
            "roleCurrent": "receiver",
            "marblesSampled": 100,
            "probRed": 0.5,
            "lambda": 5,
            "drawnRed": 0,
            "reportedRed": 0,
            "inferredRed": 0,
            "playerTrialScore": -69,
            "oppTrialScore": 69,
            "playerTotalScore": -413,
            "oppTotalScore": 386,
            "waitTime": 5192.045790541461,
            "responseTime": 1642983618105,
            "catchQuestion": "How many <b class=\"r\">red<\/b> marbles did your opponent report drawing? ",
            "catchKey": -1,
            "catchResponse": -1,
            "catchTime": 1642983618105,
            "trialTime": 0
        },
        {
            "exptPart": "trial",
            "trialNumber": 117,
            "roleCurrent": "receiver",
            "marblesSampled": 100,
            "probRed": 0.5,
            "lambda": 5,
            "drawnRed": 0,
            "reportedRed": 0,
            "inferredRed": 0,
            "playerTrialScore": -69,
            "oppTrialScore": 69,
            "playerTotalScore": -413,
            "oppTotalScore": 386,
            "waitTime": 5192.045790541461,
            "responseTime": 1642983618105,
            "catchQuestion": "How many <b class=\"r\">red<\/b> marbles did your opponent report drawing? ",
            "catchKey": -1,
            "catchResponse": -1,
            "catchTime": 1642983618105,
            "trialTime": 0
        },
        {
            "exptPart": "trial",
            "trialNumber": 118,
            "roleCurrent": "receiver",
            "marblesSampled": 100,
            "probRed": 0.5,
            "lambda": 5,
            "drawnRed": 0,
            "reportedRed": 0,
            "inferredRed": 0,
            "playerTrialScore": -69,
            "oppTrialScore": 69,
            "playerTotalScore": -413,
            "oppTotalScore": 386,
            "waitTime": 5192.045790541461,
            "responseTime": 1642983618105,
            "catchQuestion": "How many <b class=\"r\">red<\/b> marbles did your opponent report drawing? ",
            "catchKey": -1,
            "catchResponse": -1,
            "catchTime": 1642983618105,
            "trialTime": 0
        },
        {
            "exptPart": "trial",
            "trialNumber": 119,
            "roleCurrent": "receiver",
            "marblesSampled": 100,
            "probRed": 0.5,
            "lambda": 5,
            "drawnRed": 0,
            "reportedRed": 0,
            "inferredRed": 0,
            "playerTrialScore": -69,
            "oppTrialScore": 69,
            "playerTotalScore": -413,
            "oppTotalScore": 386,
            "waitTime": 5192.045790541461,
            "responseTime": 1642983618105,
            "catchQuestion": "How many <b class=\"r\">red<\/b> marbles did your opponent report drawing? ",
            "catchKey": -1,
            "catchResponse": -1,
            "catchTime": 1642983618105,
            "trialTime": 0
        },
        {
            "exptPart": "trial",
            "trialNumber": 120,
            "roleCurrent": "receiver",
            "marblesSampled": 100,
            "probRed": 0.5,
            "lambda": 5,
            "drawnRed": 0,
            "reportedRed": 0,
            "inferredRed": 0,
            "playerTrialScore": -69,
            "oppTrialScore": 69,
            "playerTotalScore": -413,
            "oppTotalScore": 386,
            "waitTime": 5192.045790541461,
            "responseTime": 1642983618105,
            "catchQuestion": "How many <b class=\"r\">red<\/b> marbles did your opponent report drawing? ",
            "catchKey": -1,
            "catchResponse": -1,
            "catchTime": 1642983618105,
            "trialTime": 0
        },
        {
            "exptPart": "trial",
            "trialNumber": 121,
            "roleCurrent": "receiver",
            "marblesSampled": 100,
            "probRed": 0.5,
            "lambda": 5,
            "drawnRed": 0,
            "reportedRed": 0,
            "inferredRed": 0,
            "playerTrialScore": -69,
            "oppTrialScore": 69,
            "playerTotalScore": -413,
            "oppTotalScore": 386,
            "waitTime": 5192.045790541461,
            "responseTime": 1642983618105,
            "catchQuestion": "How many <b class=\"r\">red<\/b> marbles did your opponent report drawing? ",
            "catchKey": -1,
            "catchResponse": -1,
            "catchTime": 1642983618105,
            "trialTime": 0
        },
        {
            "exptPart": "trial",
            "trialNumber": 122,
            "roleCurrent": "receiver",
            "marblesSampled": 100,
            "probRed": 0.5,
            "lambda": 5,
            "drawnRed": 0,
            "reportedRed": 0,
            "inferredRed": 0,
            "playerTrialScore": -69,
            "oppTrialScore": 69,
            "playerTotalScore": -413,
            "oppTotalScore": 386,
            "waitTime": 5192.045790541461,
            "responseTime": 1642983618105,
            "catchQuestion": "How many <b class=\"r\">red<\/b> marbles did your opponent report drawing? ",
            "catchKey": -1,
            "catchResponse": -1,
            "catchTime": 1642983618105,
            "trialTime": 0
        },
        {
            "exptPart": "trial",
            "trialNumber": 123,
            "roleCurrent": "receiver",
            "marblesSampled": 100,
            "probRed": 0.5,
            "lambda": 5,
            "drawnRed": 0,
            "reportedRed": 0,
            "inferredRed": 0,
            "playerTrialScore": -69,
            "oppTrialScore": 69,
            "playerTotalScore": -413,
            "oppTotalScore": 386,
            "waitTime": 5192.045790541461,
            "responseTime": 1642983618105,
            "catchQuestion": "How many <b class=\"r\">red<\/b> marbles did your opponent report drawing? ",
            "catchKey": -1,
            "catchResponse": -1,
            "catchTime": 1642983618105,
            "trialTime": 0
        },
        {
            "exptPart": "trial",
            "trialNumber": 124,
            "roleCurrent": "receiver",
            "marblesSampled": 100,
            "probRed": 0.5,
            "lambda": 5,
            "drawnRed": 0,
            "reportedRed": 0,
            "inferredRed": 0,
            "playerTrialScore": -69,
            "oppTrialScore": 69,
            "playerTotalScore": -413,
            "oppTotalScore": 386,
            "waitTime": 5192.045790541461,
            "responseTime": 1642983618105,
            "catchQuestion": "How many <b class=\"r\">red<\/b> marbles did your opponent report drawing? ",
            "catchKey": -1,
            "catchResponse": -1,
            "catchTime": 1642983618105,
            "trialTime": 0
        },
        {
            "exptPart": "trial",
            "trialNumber": 125,
            "roleCurrent": "receiver",
            "marblesSampled": 100,
            "probRed": 0.5,
            "lambda": 5,
            "drawnRed": 0,
            "reportedRed": 0,
            "inferredRed": 0,
            "playerTrialScore": -69,
            "oppTrialScore": 69,
            "playerTotalScore": -413,
            "oppTotalScore": 386,
            "waitTime": 5192.045790541461,
            "responseTime": 1642983618105,
            "catchQuestion": "How many <b class=\"r\">red<\/b> marbles did your opponent report drawing? ",
            "catchKey": -1,
            "catchResponse": -1,
            "catchTime": 1642983618105,
            "trialTime": 0
        },
        {
            "exptPart": "trial",
            "trialNumber": 126,
            "roleCurrent": "receiver",
            "marblesSampled": 100,
            "probRed": 0.5,
            "lambda": 5,
            "drawnRed": 0,
            "reportedRed": 0,
            "inferredRed": 0,
            "playerTrialScore": -69,
            "oppTrialScore": 69,
            "playerTotalScore": -413,
            "oppTotalScore": 386,
            "waitTime": 5192.045790541461,
            "responseTime": 1642983618105,
            "catchQuestion": "How many <b class=\"r\">red<\/b> marbles did your opponent report drawing? ",
            "catchKey": -1,
            "catchResponse": -1,
            "catchTime": 1642983618105,
            "trialTime": 0
        },
        {
            "exptPart": "trial",
            "trialNumber": 127,
            "roleCurrent": "receiver",
            "marblesSampled": 100,
            "probRed": 0.5,
            "lambda": 5,
            "drawnRed": 0,
            "reportedRed": 0,
            "inferredRed": 0,
            "playerTrialScore": -69,
            "oppTrialScore": 69,
            "playerTotalScore": -413,
            "oppTotalScore": 386,
            "waitTime": 5192.045790541461,
            "responseTime": 1642983618105,
            "catchQuestion": "How many <b class=\"r\">red<\/b> marbles did your opponent report drawing? ",
            "catchKey": -1,
            "catchResponse": -1,
            "catchTime": 1642983618105,
            "trialTime": 0
        },
        {
            "exptPart": "trial",
            "trialNumber": 128,
            "roleCurrent": "receiver",
            "marblesSampled": 100,
            "probRed": 0.5,
            "lambda": 5,
            "drawnRed": 0,
