{
    "client": {
        "type": "sona",
        "experiment_id": 2228,
        "credit_token": "b315147ae43241ea9c65086cb510cfb7",
        "survey_code": "38529",
        "sid": "sona-38529",
        "window": {
            "width": 1280,
            "height": 601
        },
        "screen": {
            "width": 1280,
            "height": 720
        },
        "userAgent": "Mozilla\/5.0 (Windows NT 10.0; Win64; x64) AppleWebKit\/537.36 (KHTML, like Gecko) Chrome\/97.0.4692.71 Safari\/537.36 Edg\/97.0.1072.62",
        "score": 0,
        "bonus": 0
    },
    "expt": {
        "saveURL": "submit.simple.php",
        "trials": 100,
        "practiceTrials": 2,
        "marblesSampled": 100,
        "probRed": 0.5,
        "lambdaAI": 5,
        "roleFirst": "receiver",
        "roles": [
            "sender",
            "receiver"
        ],
        "cost": "linear",
        "goal": "over",
        "catchTrials": [
            17,
            83,
            43,
            54,
            12,
            21,
            3,
            93,
            6,
            47
        ],
        "scoreTotal": {
            "player": 48,
            "opp": -493
        },
        "sona": {
            "experiment_id": 2228,
            "credit_token": "b315147ae43241ea9c65086cb510cfb7"
        },
        "pilot": false,
        "debug": false
    },
    "trials": [
        {
            "exptPart": "practice",
            "trialNumber": 1,
            "roleCurrent": "sender",
            "marblesSampled": 100,
            "probRed": 0.5,
            "lambda": 5,
            "drawnRed": 41,
            "reportedRed": 50,
            "inferredRed": 45,
            "playerTrialScore": 4,
            "oppTrialScore": -4,
            "playerTotalScore": 4,
            "oppTotalScore": -4,
            "waitTime": 2443.6975942507074,
            "responseTime": 1642829413468,
            "catchQuestion": "How many <b class=\"r\">red<\/b> marbles did you actually draw (before any changes)? ",
            "catchKey": 41,
            "catchResponse": 41,
            "catchTime": 1642829413469,
            "trialTime": 0
        },
        {
            "exptPart": "practice",
            "trialNumber": 2,
            "roleCurrent": "receiver",
            "marblesSampled": 100,
            "probRed": 0.5,
            "lambda": 5,
            "drawnRed": 39,
            "reportedRed": 40,
            "inferredRed": 36,
            "playerTrialScore": -3,
            "oppTrialScore": 0,
            "playerTotalScore": 1,
            "oppTotalScore": -4,
            "waitTime": 5177.346160546265,
            "responseTime": 1642829506695,
            "catchQuestion": "How many <b class=\"r\">red<\/b> marbles did your opponent report drawing? ",
            "catchKey": 40,
            "catchResponse": 40,
            "catchTime": 1642829506696,
            "trialTime": 0
        },
        {
            "exptPart": "trial",
            "trialNumber": 1,
            "roleCurrent": "receiver",
            "marblesSampled": 100,
            "probRed": 0.5,
            "lambda": 5,
            "drawnRed": 39,
            "reportedRed": 46,
            "inferredRed": 44,
            "playerTrialScore": -5,
            "oppTrialScore": 5,
            "playerTotalScore": -5,
            "oppTotalScore": 5,
            "waitTime": 5802.467295769811,
            "responseTime": 1642829626154,
            "catchQuestion": "How many <b class=\"r\">red<\/b> marbles did your opponent report drawing? ",
            "catchKey": -1,
            "catchResponse": -1,
            "catchTime": 1642829506696,
            "trialTime": 0
        },
        {
            "exptPart": "trial",
            "trialNumber": 2,
            "roleCurrent": "sender",
            "marblesSampled": 100,
            "probRed": 0.5,
            "lambda": 5,
            "drawnRed": 44,
            "reportedRed": 41,
            "inferredRed": 38,
            "playerTrialScore": 0,
            "oppTrialScore": -6,
            "playerTotalScore": -5,
            "oppTotalScore": -1,
            "waitTime": 2122.773994310972,
            "responseTime": 1642829747012,
            "catchQuestion": "How many <b class=\"r\">red<\/b> marbles did your opponent report drawing? ",
            "catchKey": -1,
            "catchResponse": -1,
            "catchTime": 1642829506696,
            "trialTime": 0
        },
        {
            "exptPart": "trial",
            "trialNumber": 3,
            "roleCurrent": "receiver",
            "marblesSampled": 100,
            "probRed": 0.5,
            "lambda": 5,
            "drawnRed": 66,
            "reportedRed": 68,
            "inferredRed": 56,
            "playerTrialScore": -10,
            "oppTrialScore": 0,
            "playerTotalScore": -15,
            "oppTotalScore": -1,
            "waitTime": 6215.1725663256,
            "responseTime": 1642829777710,
            "catchQuestion": "How many <b class=\"r\">red<\/b> marbles did your opponent report drawing? ",
            "catchKey": -1,
            "catchResponse": -1,
            "catchTime": 1642829506696,
            "trialTime": 0
        },
        {
            "exptPart": "trial",
            "trialNumber": 4,
            "roleCurrent": "sender",
            "marblesSampled": 100,
            "probRed": 0.5,
            "lambda": 5,
            "drawnRed": 49,
            "reportedRed": 51,
            "inferredRed": 48,
            "playerTrialScore": 0,
            "oppTrialScore": -1,
            "playerTotalScore": -15,
            "oppTotalScore": -2,
            "waitTime": 3196.9352262218595,
            "responseTime": 1642829804701,
            "catchQuestion": "How many <b class=\"r\">red<\/b> marbles did you actually draw (before any changes)? ",
            "catchKey": 49,
            "catchResponse": 49,
            "catchTime": 1642829804701,
            "trialTime": 0
        },
        {
            "exptPart": "trial",
            "trialNumber": 5,
            "roleCurrent": "receiver",
            "marblesSampled": 100,
            "probRed": 0.5,
            "lambda": 5,
            "drawnRed": 37,
            "reportedRed": 45,
            "inferredRed": 43,
            "playerTrialScore": -6,
            "oppTrialScore": 6,
            "playerTotalScore": -21,
            "oppTotalScore": 4,
            "waitTime": 5741.132968310778,
            "responseTime": 1642829842553,
            "catchQuestion": "How many <b class=\"r\">red<\/b> marbles did you actually draw (before any changes)? ",
            "catchKey": -1,
            "catchResponse": -1,
            "catchTime": 1642829842553,
            "trialTime": 0
        },
        {
            "exptPart": "trial",
            "trialNumber": 6,
            "roleCurrent": "sender",
            "marblesSampled": 100,
            "probRed": 0.5,
            "lambda": 5,
            "drawnRed": 45,
            "reportedRed": 49,
            "inferredRed": 43,
            "playerTrialScore": 0,
            "oppTrialScore": -2,
            "playerTotalScore": -21,
            "oppTotalScore": 2,
            "waitTime": 2402.9541870673643,
            "responseTime": 1642829938495,
            "catchQuestion": "How many <b class=\"r\">red<\/b> marbles did you actually draw (before any changes)? ",
            "catchKey": -1,
            "catchResponse": -1,
            "catchTime": 1642829842553,
            "trialTime": 0
        },
        {
            "exptPart": "trial",
            "trialNumber": 7,
            "roleCurrent": "receiver",
            "marblesSampled": 100,
            "probRed": 0.5,
            "lambda": 5,
            "drawnRed": 29,
            "reportedRed": 35,
            "inferredRed": 40,
            "playerTrialScore": -11,
            "oppTrialScore": 11,
            "playerTotalScore": -32,
            "oppTotalScore": 13,
            "waitTime": 6384.58054062291,
            "responseTime": 1642829991462,
            "catchQuestion": "How many <b class=\"r\">red<\/b> marbles did your opponent report drawing? ",
            "catchKey": 35,
            "catchResponse": 35,
            "catchTime": 1642829991463,
            "trialTime": 0
        },
        {
            "exptPart": "trial",
            "trialNumber": 8,
            "roleCurrent": "sender",
            "marblesSampled": 100,
            "probRed": 0.5,
            "lambda": 5,
            "drawnRed": 48,
            "reportedRed": 60,
            "inferredRed": 55,
            "playerTrialScore": 7,
            "oppTrialScore": -7,
            "playerTotalScore": -25,
            "oppTotalScore": 6,
            "waitTime": 2691.724648663513,
            "responseTime": 1642830082886,
            "catchQuestion": "How many <b class=\"r\">red<\/b> marbles did your opponent report drawing? ",
            "catchKey": -1,
            "catchResponse": -1,
            "catchTime": 1642829991463,
            "trialTime": 0
        },
        {
            "exptPart": "trial",
            "trialNumber": 9,
            "roleCurrent": "receiver",
            "marblesSampled": 100,
            "probRed": 0.5,
            "lambda": 5,
            "drawnRed": 50,
            "reportedRed": 56,
            "inferredRed": 53,
            "playerTrialScore": -3,
            "oppTrialScore": 3,
            "playerTotalScore": -28,
            "oppTotalScore": 9,
            "waitTime": 5484.355399704489,
            "responseTime": 1642830107733,
            "catchQuestion": "How many <b class=\"r\">red<\/b> marbles did your opponent report drawing? ",
            "catchKey": -1,
            "catchResponse": -1,
            "catchTime": 1642829991463,
            "trialTime": 0
        },
        {
            "exptPart": "trial",
            "trialNumber": 10,
            "roleCurrent": "sender",
            "marblesSampled": 100,
            "probRed": 0.5,
            "lambda": 5,
            "drawnRed": 70,
            "reportedRed": 73,
            "inferredRed": 68,
            "playerTrialScore": 0,
            "oppTrialScore": -2,
            "playerTotalScore": -28,
            "oppTotalScore": 7,
            "waitTime": 3209.3887741521085,
            "responseTime": 1642830180462,
            "catchQuestion": "How many <b class=\"r\">red<\/b> marbles did your opponent report drawing? ",
            "catchKey": -1,
            "catchResponse": -1,
            "catchTime": 1642830180462,
            "trialTime": 0
        },
        {
            "exptPart": "trial",
            "trialNumber": 11,
            "roleCurrent": "receiver",
            "marblesSampled": 100,
            "probRed": 0.5,
            "lambda": 5,
            "drawnRed": 84,
            "reportedRed": 89,
            "inferredRed": 83,
            "playerTrialScore": -1,
            "oppTrialScore": 0,
            "playerTotalScore": -29,
            "oppTotalScore": 7,
            "waitTime": 5405.4508956167265,
            "responseTime": 1642830295471,
            "catchQuestion": "How many <b class=\"r\">red<\/b> marbles did your opponent report drawing? ",
            "catchKey": -1,
            "catchResponse": -1,
            "catchTime": 1642830180462,
            "trialTime": 0
        },
        {
            "exptPart": "trial",
            "trialNumber": 12,
            "roleCurrent": "sender",
            "marblesSampled": 100,
            "probRed": 0.5,
            "lambda": 5,
            "drawnRed": 42,
            "reportedRed": 57,
            "inferredRed": 56,
            "playerTrialScore": 14,
            "oppTrialScore": -14,
            "playerTotalScore": -15,
            "oppTotalScore": -7,
            "waitTime": 3213.312578223337,
            "responseTime": 1642830431702,
            "catchQuestion": "How many <b class=\"r\">red<\/b> marbles did your opponent report drawing? ",
            "catchKey": -1,
            "catchResponse": -1,
            "catchTime": 1642830180462,
            "trialTime": 0
        },
        {
            "exptPart": "trial",
            "trialNumber": 13,
            "roleCurrent": "receiver",
            "marblesSampled": 100,
            "probRed": 0.5,
            "lambda": 5,
            "drawnRed": 20,
            "reportedRed": 27,
            "inferredRed": 25,
            "playerTrialScore": -5,
            "oppTrialScore": 5,
            "playerTotalScore": -20,
            "oppTotalScore": -2,
            "waitTime": 5172.5162993203285,
            "responseTime": 1642830462505,
            "catchQuestion": "How many <b class=\"r\">red<\/b> marbles did your opponent report drawing? ",
            "catchKey": 27,
            "catchResponse": 27,
            "catchTime": 1642830462506,
            "trialTime": 0
        },
        {
            "exptPart": "trial",
            "trialNumber": 14,
            "roleCurrent": "sender",
            "marblesSampled": 100,
            "probRed": 0.5,
            "lambda": 5,
            "drawnRed": 39,
            "reportedRed": 42,
            "inferredRed": 39,
            "playerTrialScore": 0,
            "oppTrialScore": 0,
            "playerTotalScore": -20,
            "oppTotalScore": -2,
            "waitTime": 2791.4471716692296,
            "responseTime": 1642830522928,
            "catchQuestion": "How many <b class=\"r\">red<\/b> marbles did your opponent report drawing? ",
            "catchKey": -1,
            "catchResponse": -1,
            "catchTime": 1642830462506,
            "trialTime": 0
        },
        {
            "exptPart": "trial",
            "trialNumber": 15,
            "roleCurrent": "receiver",
            "marblesSampled": 100,
            "probRed": 0.5,
            "lambda": 5,
            "drawnRed": 33,
            "reportedRed": 45,
            "inferredRed": 44,
            "playerTrialScore": -11,
            "oppTrialScore": 11,
            "playerTotalScore": -31,
            "oppTotalScore": 9,
            "waitTime": 6600.535679099899,
            "responseTime": 1642830557841,
            "catchQuestion": "How many <b class=\"r\">red<\/b> marbles did your opponent report drawing? ",
            "catchKey": -1,
            "catchResponse": -1,
            "catchTime": 1642830557841,
            "trialTime": 0
        },
        {
            "exptPart": "trial",
            "trialNumber": 16,
            "roleCurrent": "sender",
            "marblesSampled": 100,
            "probRed": 0.5,
            "lambda": 5,
            "drawnRed": 75,
            "reportedRed": 56,
            "inferredRed": 50,
            "playerTrialScore": 0,
            "oppTrialScore": -25,
            "playerTotalScore": -31,
            "oppTotalScore": -16,
            "waitTime": 3242.2415899110347,
            "responseTime": 1642830831849,
            "catchQuestion": "How many <b class=\"r\">red<\/b> marbles did your opponent report drawing? ",
            "catchKey": -1,
            "catchResponse": -1,
            "catchTime": 1642830557841,
            "trialTime": 0
        },
        {
            "exptPart": "trial",
            "trialNumber": 17,
            "roleCurrent": "receiver",
            "marblesSampled": 100,
            "probRed": 0.5,
            "lambda": 5,
            "drawnRed": 46,
            "reportedRed": 50,
            "inferredRed": 48,
            "playerTrialScore": -2,
            "oppTrialScore": 2,
            "playerTotalScore": -33,
            "oppTotalScore": -14,
            "waitTime": 6008.890519791563,
            "responseTime": 1642830859581,
            "catchQuestion": "How many <b class=\"r\">red<\/b> marbles did your opponent report drawing? ",
            "catchKey": -1,
            "catchResponse": -1,
            "catchTime": 1642830557841,
            "trialTime": 0
        },
        {
            "exptPart": "trial",
            "trialNumber": 18,
            "roleCurrent": "sender",
            "marblesSampled": 100,
            "probRed": 0.5,
            "lambda": 5,
            "drawnRed": 39,
            "reportedRed": 32,
            "inferredRed": 26,
            "playerTrialScore": 0,
            "oppTrialScore": -13,
            "playerTotalScore": -33,
            "oppTotalScore": -27,
            "waitTime": 2683.461690663923,
            "responseTime": 1642830917808,
            "catchQuestion": "How many <b class=\"r\">red<\/b> marbles did you actually draw (before any changes)? ",
            "catchKey": 39,
            "catchResponse": 39,
            "catchTime": 1642830917809,
            "trialTime": 0
        },
        {
            "exptPart": "trial",
            "trialNumber": 19,
            "roleCurrent": "receiver",
            "marblesSampled": 100,
            "probRed": 0.5,
            "lambda": 5,
            "drawnRed": 55,
            "reportedRed": 60,
            "inferredRed": 57,
            "playerTrialScore": -2,
            "oppTrialScore": 2,
            "playerTotalScore": -35,
            "oppTotalScore": -25,
            "waitTime": 7263.296202600051,
            "responseTime": 1642830948312,
            "catchQuestion": "How many <b class=\"r\">red<\/b> marbles did you actually draw (before any changes)? ",
            "catchKey": -1,
            "catchResponse": -1,
            "catchTime": 1642830917809,
            "trialTime": 0
        },
        {
            "exptPart": "trial",
            "trialNumber": 20,
            "roleCurrent": "sender",
            "marblesSampled": 100,
            "probRed": 0.5,
            "lambda": 5,
            "drawnRed": 70,
            "reportedRed": 61,
            "inferredRed": 59,
            "playerTrialScore": 0,
            "oppTrialScore": -11,
            "playerTotalScore": -35,
            "oppTotalScore": -36,
            "waitTime": 2925.105808836269,
            "responseTime": 1642831024317,
            "catchQuestion": "How many <b class=\"r\">red<\/b> marbles did you actually draw (before any changes)? ",
            "catchKey": -1,
            "catchResponse": -1,
            "catchTime": 1642831024318,
            "trialTime": 0
        },
        {
            "exptPart": "trial",
            "trialNumber": 21,
            "roleCurrent": "receiver",
            "marblesSampled": 100,
            "probRed": 0.5,
            "lambda": 5,
            "drawnRed": 59,
            "reportedRed": 63,
            "inferredRed": 60,
            "playerTrialScore": -1,
            "oppTrialScore": 1,
            "playerTotalScore": -36,
            "oppTotalScore": -35,
            "waitTime": 6721.941859752517,
            "responseTime": 1642831099443,
            "catchQuestion": "How many <b class=\"r\">red<\/b> marbles did you actually draw (before any changes)? ",
            "catchKey": -1,
            "catchResponse": -1,
            "catchTime": 1642831024318,
            "trialTime": 0
        },
        {
            "exptPart": "trial",
            "trialNumber": 22,
            "roleCurrent": "sender",
            "marblesSampled": 100,
            "probRed": 0.5,
            "lambda": 5,
            "drawnRed": 46,
            "reportedRed": 34,
            "inferredRed": 28,
            "playerTrialScore": 0,
            "oppTrialScore": -18,
            "playerTotalScore": -36,
            "oppTotalScore": -53,
            "waitTime": 2486.6333733352167,
            "responseTime": 1642831173367,
            "catchQuestion": "How many <b class=\"r\">red<\/b> marbles did you actually draw (before any changes)? ",
            "catchKey": 46,
            "catchResponse": 46,
            "catchTime": 1642831173368,
            "trialTime": 0
        },
        {
            "exptPart": "trial",
            "trialNumber": 23,
            "roleCurrent": "receiver",
            "marblesSampled": 100,
            "probRed": 0.5,
            "lambda": 5,
            "drawnRed": 41,
            "reportedRed": 43,
            "inferredRed": 41,
            "playerTrialScore": 0,
            "oppTrialScore": 0,
            "playerTotalScore": -36,
            "oppTotalScore": -53,
            "waitTime": 7210.120201914219,
            "responseTime": 1642831214531,
            "catchQuestion": "How many <b class=\"r\">red<\/b> marbles did you actually draw (before any changes)? ",
            "catchKey": -1,
            "catchResponse": -1,
            "catchTime": 1642831173368,
            "trialTime": 0
        },
        {
            "exptPart": "trial",
            "trialNumber": 24,
            "roleCurrent": "sender",
            "marblesSampled": 100,
            "probRed": 0.5,
            "lambda": 5,
            "drawnRed": 69,
            "reportedRed": 56,
            "inferredRed": 52,
            "playerTrialScore": 0,
            "oppTrialScore": -17,
            "playerTotalScore": -36,
            "oppTotalScore": -70,
            "waitTime": 2395.427802294071,
            "responseTime": 1642831298730,
            "catchQuestion": "How many <b class=\"r\">red<\/b> marbles did you actually draw (before any changes)? ",
            "catchKey": -1,
            "catchResponse": -1,
            "catchTime": 1642831173368,
            "trialTime": 0
        },
        {
            "exptPart": "trial",
            "trialNumber": 25,
            "roleCurrent": "receiver",
            "marblesSampled": 100,
            "probRed": 0.5,
            "lambda": 5,
            "drawnRed": 68,
            "reportedRed": 76,
            "inferredRed": 70,
            "playerTrialScore": -2,
            "oppTrialScore": 2,
            "playerTotalScore": -38,
            "oppTotalScore": -68,
            "waitTime": 7251.414181110385,
            "responseTime": 1642831315196,
            "catchQuestion": "How many <b class=\"r\">red<\/b> marbles did you actually draw (before any changes)? ",
            "catchKey": -1,
            "catchResponse": -1,
            "catchTime": 1642831315196,
            "trialTime": 0
        },
        {
            "exptPart": "trial",
            "trialNumber": 26,
            "roleCurrent": "sender",
            "marblesSampled": 100,
            "probRed": 0.5,
            "lambda": 5,
            "drawnRed": 15,
            "reportedRed": 45,
            "inferredRed": 42,
            "playerTrialScore": 27,
            "oppTrialScore": -27,
            "playerTotalScore": -11,
            "oppTotalScore": -95,
            "waitTime": 2707.3595295850528,
            "responseTime": 1642831700402,
            "catchQuestion": "How many <b class=\"r\">red<\/b> marbles did you actually draw (before any changes)? ",
            "catchKey": -1,
            "catchResponse": -1,
            "catchTime": 1642831315196,
            "trialTime": 0
        },
        {
            "exptPart": "trial",
            "trialNumber": 27,
            "roleCurrent": "receiver",
            "marblesSampled": 100,
            "probRed": 0.5,
            "lambda": 5,
            "drawnRed": 62,
            "reportedRed": 64,
            "inferredRed": 59,
            "playerTrialScore": -3,
            "oppTrialScore": 0,
            "playerTotalScore": -14,
            "oppTotalScore": -95,
            "waitTime": 6707.694151008409,
            "responseTime": 1642831718153,
            "catchQuestion": "How many <b class=\"r\">red<\/b> marbles did you actually draw (before any changes)? ",
            "catchKey": -1,
            "catchResponse": -1,
            "catchTime": 1642831315196,
            "trialTime": 0
        },
        {
            "exptPart": "trial",
            "trialNumber": 28,
            "roleCurrent": "sender",
            "marblesSampled": 100,
            "probRed": 0.5,
            "lambda": 5,
            "drawnRed": 81,
            "reportedRed": 64,
            "inferredRed": 61,
            "playerTrialScore": 0,
            "oppTrialScore": -20,
            "playerTotalScore": -14,
            "oppTotalScore": -115,
            "waitTime": 3067.9760194120086,
            "responseTime": 1642831813038,
            "catchQuestion": "How many <b class=\"r\">red<\/b> marbles did you actually draw (before any changes)? ",
            "catchKey": -1,
            "catchResponse": -1,
            "catchTime": 1642831315196,
            "trialTime": 0
        },
        {
            "exptPart": "trial",
            "trialNumber": 29,
            "roleCurrent": "receiver",
            "marblesSampled": 100,
            "probRed": 0.5,
            "lambda": 5,
            "drawnRed": 77,
            "reportedRed": 84,
            "inferredRed": 80,
            "playerTrialScore": -3,
            "oppTrialScore": 3,
            "playerTotalScore": -17,
            "oppTotalScore": -112,
            "waitTime": 6997.528811131688,
            "responseTime": 1642831827053,
            "catchQuestion": "How many <b class=\"r\">red<\/b> marbles did you actually draw (before any changes)? ",
            "catchKey": -1,
            "catchResponse": -1,
            "catchTime": 1642831315196,
            "trialTime": 0
        },
        {
            "exptPart": "trial",
            "trialNumber": 30,
            "roleCurrent": "sender",
            "marblesSampled": 100,
            "probRed": 0.5,
            "lambda": 5,
            "drawnRed": 46,
            "reportedRed": 36,
            "inferredRed": 33,
            "playerTrialScore": 0,
            "oppTrialScore": -13,
            "playerTotalScore": -17,
            "oppTotalScore": -125,
            "waitTime": 2636.074557737069,
            "responseTime": 1642831897329,
            "catchQuestion": "How many <b class=\"r\">red<\/b> marbles did you actually draw (before any changes)? ",
            "catchKey": -1,
            "catchResponse": -1,
            "catchTime": 1642831897330,
            "trialTime": 0
        },
        {
            "exptPart": "trial",
            "trialNumber": 31,
            "roleCurrent": "receiver",
            "marblesSampled": 100,
            "probRed": 0.5,
            "lambda": 5,
            "drawnRed": 21,
            "reportedRed": 24,
            "inferredRed": 22,
            "playerTrialScore": -1,
            "oppTrialScore": 1,
            "playerTotalScore": -18,
            "oppTotalScore": -124,
            "waitTime": 7131.650615081135,
            "responseTime": 1642831962290,
            "catchQuestion": "How many <b class=\"r\">red<\/b> marbles did you actually draw (before any changes)? ",
            "catchKey": -1,
            "catchResponse": -1,
            "catchTime": 1642831897330,
            "trialTime": 0
        },
        {
            "exptPart": "trial",
            "trialNumber": 32,
            "roleCurrent": "sender",
            "marblesSampled": 100,
            "probRed": 0.5,
            "lambda": 5,
            "drawnRed": 68,
            "reportedRed": 54,
            "inferredRed": 52,
            "playerTrialScore": 0,
            "oppTrialScore": -16,
            "playerTotalScore": -18,
            "oppTotalScore": -140,
            "waitTime": 3031.6808117746714,
            "responseTime": 1642832050076,
            "catchQuestion": "How many <b class=\"r\">red<\/b> marbles did you actually draw (before any changes)? ",
            "catchKey": -1,
            "catchResponse": -1,
            "catchTime": 1642831897330,
            "trialTime": 0
        },
        {
            "exptPart": "trial",
            "trialNumber": 33,
            "roleCurrent": "receiver",
            "marblesSampled": 100,
            "probRed": 0.5,
            "lambda": 5,
            "drawnRed": 68,
            "reportedRed": 68,
            "inferredRed": 64,
            "playerTrialScore": -4,
            "oppTrialScore": 0,
            "playerTotalScore": -22,
            "oppTotalScore": -140,
            "waitTime": 5191.878089973923,
            "responseTime": 1642832065052,
            "catchQuestion": "How many <b class=\"r\">red<\/b> marbles did you actually draw (before any changes)? ",
            "catchKey": -1,
            "catchResponse": -1,
            "catchTime": 1642831897330,
            "trialTime": 0
        },
        {
            "exptPart": "trial",
            "trialNumber": 34,
            "roleCurrent": "sender",
            "marblesSampled": 100,
            "probRed": 0.5,
            "lambda": 5,
            "drawnRed": 35,
            "reportedRed": 53,
            "inferredRed": 49,
            "playerTrialScore": 14,
            "oppTrialScore": -14,
            "playerTotalScore": -8,
            "oppTotalScore": -154,
            "waitTime": 2458.9183924027393,
            "responseTime": 1642832173896,
            "catchQuestion": "How many <b class=\"r\">red<\/b> marbles did you actually draw (before any changes)? ",
            "catchKey": -1,
            "catchResponse": -1,
            "catchTime": 1642831897330,
            "trialTime": 0
        },
        {
            "exptPart": "trial",
            "trialNumber": 35,
            "roleCurrent": "receiver",
            "marblesSampled": 100,
            "probRed": 0.5,
            "lambda": 5,
            "drawnRed": 58,
            "reportedRed": 65,
            "inferredRed": 62,
            "playerTrialScore": -4,
            "oppTrialScore": 4,
            "playerTotalScore": -12,
            "oppTotalScore": -150,
            "waitTime": 7298.396019662042,
            "responseTime": 1642832188993,
            "catchQuestion": "How many <b class=\"r\">red<\/b> marbles did you actually draw (before any changes)? ",
            "catchKey": -1,
            "catchResponse": -1,
            "catchTime": 1642832188994,
            "trialTime": 0
        },
        {
            "exptPart": "trial",
            "trialNumber": 36,
            "roleCurrent": "sender",
            "marblesSampled": 100,
            "probRed": 0.5,
            "lambda": 5,
            "drawnRed": 45,
            "reportedRed": 63,
            "inferredRed": 60,
            "playerTrialScore": 15,
            "oppTrialScore": -15,
            "playerTotalScore": 3,
            "oppTotalScore": -165,
            "waitTime": 2584.4957685538557,
            "responseTime": 1642832356609,
            "catchQuestion": "How many <b class=\"r\">red<\/b> marbles did you actually draw (before any changes)? ",
            "catchKey": -1,
            "catchResponse": -1,
            "catchTime": 1642832188994,
            "trialTime": 0
        },
        {
            "exptPart": "trial",
            "trialNumber": 37,
            "roleCurrent": "receiver",
            "marblesSampled": 100,
            "probRed": 0.5,
            "lambda": 5,
            "drawnRed": 20,
            "reportedRed": 21,
            "inferredRed": 18,
            "playerTrialScore": -2,
            "oppTrialScore": 0,
            "playerTotalScore": 1,
            "oppTotalScore": -165,
            "waitTime": 6718.539651180612,
            "responseTime": 1642832377164,
            "catchQuestion": "How many <b class=\"r\">red<\/b> marbles did you actually draw (before any changes)? ",
            "catchKey": -1,
            "catchResponse": -1,
            "catchTime": 1642832188994,
            "trialTime": 0
        },
        {
            "exptPart": "trial",
            "trialNumber": 38,
            "roleCurrent": "sender",
            "marblesSampled": 100,
            "probRed": 0.5,
            "lambda": 5,
            "drawnRed": 30,
            "reportedRed": 53,
            "inferredRed": 52,
            "playerTrialScore": 22,
            "oppTrialScore": -22,
            "playerTotalScore": 23,
            "oppTotalScore": -187,
            "waitTime": 2817.7103194790366,
            "responseTime": 1642832532297,
            "catchQuestion": "How many <b class=\"r\">red<\/b> marbles did you actually draw (before any changes)? ",
            "catchKey": -1,
            "catchResponse": -1,
            "catchTime": 1642832188994,
            "trialTime": 0
        },
        {
            "exptPart": "trial",
            "trialNumber": 39,
            "roleCurrent": "receiver",
            "marblesSampled": 100,
            "probRed": 0.5,
            "lambda": 5,
            "drawnRed": 52,
            "reportedRed": 56,
            "inferredRed": 52,
            "playerTrialScore": 0,
            "oppTrialScore": 0,
            "playerTotalScore": 23,
            "oppTotalScore": -187,
            "waitTime": 5227.284205102571,
            "responseTime": 1642832547272,
            "catchQuestion": "How many <b class=\"r\">red<\/b> marbles did you actually draw (before any changes)? ",
            "catchKey": -1,
            "catchResponse": -1,
            "catchTime": 1642832188994,
            "trialTime": 0
        },
        {
            "exptPart": "trial",
            "trialNumber": 40,
            "roleCurrent": "sender",
            "marblesSampled": 100,
            "probRed": 0.5,
            "lambda": 5,
            "drawnRed": 86,
            "reportedRed": 69,
            "inferredRed": 66,
            "playerTrialScore": 0,
            "oppTrialScore": -20,
            "playerTotalScore": 23,
            "oppTotalScore": -207,
            "waitTime": 2555.8160948817786,
            "responseTime": 1642832657520,
            "catchQuestion": "How many <b class=\"r\">red<\/b> marbles did you actually draw (before any changes)? ",
            "catchKey": -1,
            "catchResponse": -1,
            "catchTime": 1642832657521,
            "trialTime": 0
        },
        {
            "exptPart": "trial",
            "trialNumber": 41,
            "roleCurrent": "receiver",
            "marblesSampled": 100,
            "probRed": 0.5,
            "lambda": 5,
            "drawnRed": 54,
            "reportedRed": 58,
            "inferredRed": 53,
            "playerTrialScore": -1,
            "oppTrialScore": 0,
            "playerTotalScore": 22,
            "oppTotalScore": -207,
            "waitTime": 6537.496322150559,
            "responseTime": 1642832706655,
            "catchQuestion": "How many <b class=\"r\">red<\/b> marbles did you actually draw (before any changes)? ",
            "catchKey": -1,
            "catchResponse": -1,
            "catchTime": 1642832657521,
            "trialTime": 0
        },
        {
            "exptPart": "trial",
            "trialNumber": 42,
            "roleCurrent": "sender",
            "marblesSampled": 100,
            "probRed": 0.5,
            "lambda": 5,
            "drawnRed": 39,
            "reportedRed": 34,
            "inferredRed": 30,
            "playerTrialScore": 0,
            "oppTrialScore": -9,
            "playerTotalScore": 22,
            "oppTotalScore": -216,
            "waitTime": 2118.3881966923645,
            "responseTime": 1642832777500,
            "catchQuestion": "How many <b class=\"r\">red<\/b> marbles did you actually draw (before any changes)? ",
            "catchKey": -1,
            "catchResponse": -1,
            "catchTime": 1642832657521,
            "trialTime": 0
        },
        {
            "exptPart": "trial",
            "trialNumber": 43,
            "roleCurrent": "receiver",
            "marblesSampled": 100,
            "probRed": 0.5,
            "lambda": 5,
            "drawnRed": 26,
            "reportedRed": 31,
            "inferredRed": 28,
            "playerTrialScore": -2,
            "oppTrialScore": 2,
            "playerTotalScore": 20,
            "oppTotalScore": -214,
            "waitTime": 5664.159257090677,
            "responseTime": 1642832792698,
            "catchQuestion": "How many <b class=\"r\">red<\/b> marbles did you actually draw (before any changes)? ",
            "catchKey": -1,
            "catchResponse": -1,
            "catchTime": 1642832657521,
            "trialTime": 0
        },
        {
            "exptPart": "trial",
            "trialNumber": 44,
            "roleCurrent": "sender",
            "marblesSampled": 100,
            "probRed": 0.5,
            "lambda": 5,
            "drawnRed": 57,
            "reportedRed": 69,
            "inferredRed": 65,
            "playerTrialScore": 8,
            "oppTrialScore": -8,
            "playerTotalScore": 28,
            "oppTotalScore": -222,
            "waitTime": 2391.691126894466,
            "responseTime": 1642832870728,
            "catchQuestion": "How many <b class=\"r\">red<\/b> marbles did you actually draw (before any changes)? ",
            "catchKey": 57,
            "catchResponse": 59,
            "catchTime": 1642832870729,
            "trialTime": 0
        },
        {
            "exptPart": "trial",
            "trialNumber": 45,
            "roleCurrent": "receiver",
            "marblesSampled": 100,
            "probRed": 0.5,
            "lambda": 5,
            "drawnRed": 56,
            "reportedRed": 62,
            "inferredRed": 57,
            "playerTrialScore": -1,
            "oppTrialScore": 1,
            "playerTotalScore": 27,
            "oppTotalScore": -221,
            "waitTime": 6755.438139911926,
            "responseTime": 1642832897127,
            "catchQuestion": "How many <b class=\"r\">red<\/b> marbles did you actually draw (before any changes)? ",
            "catchKey": -1,
            "catchResponse": -1,
            "catchTime": 1642832897127,
            "trialTime": 0
        },
        {
            "exptPart": "trial",
            "trialNumber": 46,
            "roleCurrent": "sender",
            "marblesSampled": 100,
            "probRed": 0.5,
            "lambda": 5,
            "drawnRed": 55,
            "reportedRed": 46,
            "inferredRed": 43,
            "playerTrialScore": 0,
            "oppTrialScore": -12,
            "playerTotalScore": 27,
            "oppTotalScore": -233,
            "waitTime": 2381.5456512466744,
            "responseTime": 1642833000343,
            "catchQuestion": "How many <b class=\"r\">red<\/b> marbles did you actually draw (before any changes)? ",
            "catchKey": -1,
            "catchResponse": -1,
            "catchTime": 1642832897127,
            "trialTime": 0
        },
        {
            "exptPart": "trial",
            "trialNumber": 47,
            "roleCurrent": "receiver",
            "marblesSampled": 100,
            "probRed": 0.5,
            "lambda": 5,
            "drawnRed": 52,
            "reportedRed": 58,
            "inferredRed": 55,
            "playerTrialScore": -3,
            "oppTrialScore": 3,
            "playerTotalScore": 24,
            "oppTotalScore": -230,
            "waitTime": 6338.796718981761,
            "responseTime": 1642833021061,
            "catchQuestion": "How many <b class=\"r\">red<\/b> marbles did you actually draw (before any changes)? ",
            "catchKey": -1,
            "catchResponse": -1,
            "catchTime": 1642832897127,
            "trialTime": 0
        },
        {
            "exptPart": "trial",
            "trialNumber": 48,
            "roleCurrent": "sender",
            "marblesSampled": 100,
            "probRed": 0.5,
            "lambda": 5,
            "drawnRed": 39,
            "reportedRed": 55,
            "inferredRed": 51,
            "playerTrialScore": 12,
            "oppTrialScore": -12,
            "playerTotalScore": 36,
            "oppTotalScore": -242,
            "waitTime": 2888.467527325278,
            "responseTime": 1642833111579,
            "catchQuestion": "How many <b class=\"r\">red<\/b> marbles did you actually draw (before any changes)? ",
            "catchKey": 39,
            "catchResponse": 39,
            "catchTime": 1642833111579,
            "trialTime": 0
        },
        {
            "exptPart": "trial",
            "trialNumber": 49,
            "roleCurrent": "receiver",
            "marblesSampled": 100,
            "probRed": 0.5,
            "lambda": 5,
            "drawnRed": 61,
            "reportedRed": 63,
            "inferredRed": 55,
            "playerTrialScore": -6,
            "oppTrialScore": 0,
            "playerTotalScore": 30,
            "oppTotalScore": -242,
            "waitTime": 6083.953188881987,
            "responseTime": 1642833168674,
            "catchQuestion": "How many <b class=\"r\">red<\/b> marbles did you actually draw (before any changes)? ",
            "catchKey": -1,
            "catchResponse": -1,
            "catchTime": 1642833111579,
            "trialTime": 0
        },
        {
            "exptPart": "trial",
            "trialNumber": 50,
            "roleCurrent": "sender",
            "marblesSampled": 100,
            "probRed": 0.5,
            "lambda": 5,
            "drawnRed": 44,
            "reportedRed": 56,
            "inferredRed": 53,
            "playerTrialScore": 9,
            "oppTrialScore": -9,
            "playerTotalScore": 39,
            "oppTotalScore": -251,
            "waitTime": 2751.0160700743627,
            "responseTime": 1642833237909,
            "catchQuestion": "How many <b class=\"r\">red<\/b> marbles did you actually draw (before any changes)? ",
            "catchKey": -1,
            "catchResponse": -1,
            "catchTime": 1642833237909,
            "trialTime": 0
        },
        {
            "exptPart": "trial",
            "trialNumber": 51,
            "roleCurrent": "receiver",
            "marblesSampled": 100,
            "probRed": 0.5,
            "lambda": 5,
            "drawnRed": 56,
            "reportedRed": 57,
            "inferredRed": 53,
            "playerTrialScore": -3,
            "oppTrialScore": 0,
            "playerTotalScore": 36,
            "oppTotalScore": -251,
            "waitTime": 5333.660937305286,
            "responseTime": 1642833273569,
            "catchQuestion": "How many <b class=\"r\">red<\/b> marbles did you actually draw (before any changes)? ",
            "catchKey": -1,
            "catchResponse": -1,
            "catchTime": 1642833237909,
            "trialTime": 0
        },
        {
            "exptPart": "trial",
            "trialNumber": 52,
            "roleCurrent": "sender",
            "marblesSampled": 100,
            "probRed": 0.5,
            "lambda": 5,
            "drawnRed": 58,
            "reportedRed": 51,
            "inferredRed": 45,
            "playerTrialScore": 0,
            "oppTrialScore": -13,
            "playerTotalScore": 36,
            "oppTotalScore": -264,
            "waitTime": 2634.0259449347673,
            "responseTime": 1642833314720,
            "catchQuestion": "How many <b class=\"r\">red<\/b> marbles did you actually draw (before any changes)? ",
            "catchKey": -1,
            "catchResponse": -1,
            "catchTime": 1642833237909,
            "trialTime": 0
        },
        {
            "exptPart": "trial",
            "trialNumber": 53,
            "roleCurrent": "receiver",
            "marblesSampled": 100,
            "probRed": 0.5,
            "lambda": 5,
            "drawnRed": 44,
            "reportedRed": 48,
            "inferredRed": 45,
            "playerTrialScore": -1,
            "oppTrialScore": 1,
            "playerTotalScore": 35,
            "oppTotalScore": -263,
            "waitTime": 5565.463110606495,
            "responseTime": 1642833335165,
            "catchQuestion": "How many <b class=\"r\">red<\/b> marbles did you actually draw (before any changes)? ",
            "catchKey": -1,
            "catchResponse": -1,
            "catchTime": 1642833237909,
            "trialTime": 0
        },
        {
            "exptPart": "trial",
            "trialNumber": 54,
            "roleCurrent": "sender",
            "marblesSampled": 100,
            "probRed": 0.5,
            "lambda": 5,
            "drawnRed": 69,
            "reportedRed": 57,
            "inferredRed": 49,
            "playerTrialScore": 0,
            "oppTrialScore": -20,
            "playerTotalScore": 35,
            "oppTotalScore": -283,
            "waitTime": 2490.9097524062345,
            "responseTime": 1642833396031,
            "catchQuestion": "How many <b class=\"r\">red<\/b> marbles did you actually draw (before any changes)? ",
            "catchKey": -1,
            "catchResponse": -1,
            "catchTime": 1642833237909,
            "trialTime": 0
        },
        {
            "exptPart": "trial",
            "trialNumber": 55,
            "roleCurrent": "receiver",
            "marblesSampled": 100,
            "probRed": 0.5,
            "lambda": 5,
            "drawnRed": 35,
            "reportedRed": 40,
            "inferredRed": 33,
            "playerTrialScore": -2,
            "oppTrialScore": 0,
            "playerTotalScore": 33,
            "oppTotalScore": -283,
            "waitTime": 7463.65314178085,
            "responseTime": 1642833412768,
            "catchQuestion": "How many <b class=\"r\">red<\/b> marbles did your opponent report drawing? ",
            "catchKey": 40,
            "catchResponse": 40,
            "catchTime": 1642833412768,
            "trialTime": 0
        },
        {
            "exptPart": "trial",
            "trialNumber": 56,
            "roleCurrent": "sender",
            "marblesSampled": 100,
            "probRed": 0.5,
            "lambda": 5,
            "drawnRed": 41,
            "reportedRed": 52,
            "inferredRed": 49,
            "playerTrialScore": 8,
            "oppTrialScore": -8,
            "playerTotalScore": 41,
            "oppTotalScore": -291,
            "waitTime": 2218.0992271604086,
            "responseTime": 1642833537334,
            "catchQuestion": "How many <b class=\"r\">red<\/b> marbles did your opponent report drawing? ",
            "catchKey": -1,
            "catchResponse": -1,
            "catchTime": 1642833412768,
            "trialTime": 0
        },
        {
            "exptPart": "trial",
            "trialNumber": 57,
            "roleCurrent": "receiver",
            "marblesSampled": 100,
            "probRed": 0.5,
            "lambda": 5,
            "drawnRed": 48,
            "reportedRed": 53,
            "inferredRed": 50,
            "playerTrialScore": -2,
            "oppTrialScore": 2,
            "playerTotalScore": 39,
            "oppTotalScore": -289,
            "waitTime": 7412.380493959855,
            "responseTime": 1642833549977,
            "catchQuestion": "How many <b class=\"r\">red<\/b> marbles did your opponent report drawing? ",
            "catchKey": -1,
            "catchResponse": -1,
            "catchTime": 1642833412768,
            "trialTime": 0
        },
        {
            "exptPart": "trial",
            "trialNumber": 58,
            "roleCurrent": "sender",
            "marblesSampled": 100,
            "probRed": 0.5,
            "lambda": 5,
            "drawnRed": 60,
            "reportedRed": 49,
            "inferredRed": 44,
            "playerTrialScore": 0,
            "oppTrialScore": -16,
            "playerTotalScore": 39,
            "oppTotalScore": -305,
            "waitTime": 2797.530928564739,
            "responseTime": 1642833609987,
            "catchQuestion": "How many <b class=\"r\">red<\/b> marbles did your opponent report drawing? ",
            "catchKey": -1,
            "catchResponse": -1,
            "catchTime": 1642833412768,
            "trialTime": 0
        },
        {
            "exptPart": "trial",
            "trialNumber": 59,
            "roleCurrent": "receiver",
            "marblesSampled": 100,
            "probRed": 0.5,
            "lambda": 5,
            "drawnRed": 48,
            "reportedRed": 55,
            "inferredRed": 52,
            "playerTrialScore": -4,
            "oppTrialScore": 4,
            "playerTotalScore": 35,
            "oppTotalScore": -301,
            "waitTime": 7423.084644409943,
            "responseTime": 1642833628148,
            "catchQuestion": "How many <b class=\"r\">red<\/b> marbles did your opponent report drawing? ",
            "catchKey": -1,
            "catchResponse": -1,
            "catchTime": 1642833412768,
            "trialTime": 0
        },
        {
            "exptPart": "trial",
            "trialNumber": 60,
            "roleCurrent": "sender",
            "marblesSampled": 100,
            "probRed": 0.5,
            "lambda": 5,
            "drawnRed": 41,
            "reportedRed": 54,
            "inferredRed": 47,
            "playerTrialScore": 6,
            "oppTrialScore": -6,
            "playerTotalScore": 41,
            "oppTotalScore": -307,
            "waitTime": 2099.5558327318795,
            "responseTime": 1642833709838,
            "catchQuestion": "How many <b class=\"r\">red<\/b> marbles did your opponent report drawing? ",
            "catchKey": -1,
            "catchResponse": -1,
            "catchTime": 1642833709845,
            "trialTime": 0
        },
        {
            "exptPart": "trial",
            "trialNumber": 61,
            "roleCurrent": "receiver",
            "marblesSampled": 100,
            "probRed": 0.5,
            "lambda": 5,
            "drawnRed": 51,
            "reportedRed": 58,
            "inferredRed": 53,
            "playerTrialScore": -2,
            "oppTrialScore": 2,
            "playerTotalScore": 39,
            "oppTotalScore": -305,
            "waitTime": 5292.349992128066,
            "responseTime": 1642833735100,
            "catchQuestion": "How many <b class=\"r\">red<\/b> marbles did your opponent report drawing? ",
            "catchKey": -1,
            "catchResponse": -1,
            "catchTime": 1642833709845,
            "trialTime": 0
        },
        {
            "exptPart": "trial",
            "trialNumber": 62,
            "roleCurrent": "sender",
            "marblesSampled": 100,
            "probRed": 0.5,
            "lambda": 5,
            "drawnRed": 41,
            "reportedRed": 54,
            "inferredRed": 50,
            "playerTrialScore": 9,
            "oppTrialScore": -9,
            "playerTotalScore": 48,
            "oppTotalScore": -314,
            "waitTime": 2269.0961887886847,
            "responseTime": 1642833799585,
            "catchQuestion": "How many <b class=\"r\">red<\/b> marbles did your opponent report drawing? ",
            "catchKey": -1,
            "catchResponse": -1,
            "catchTime": 1642833709845,
            "trialTime": 0
        },
        {
            "exptPart": "trial",
            "trialNumber": 63,
            "roleCurrent": "receiver",
            "marblesSampled": 100,
            "probRed": 0.5,
            "lambda": 5,
            "drawnRed": 79,
            "reportedRed": 81,
            "inferredRed": 77,
            "playerTrialScore": -2,
            "oppTrialScore": 0,
            "playerTotalScore": 46,
            "oppTotalScore": -314,
            "waitTime": 6882.797952394967,
            "responseTime": 1642833811182,
            "catchQuestion": "How many <b class=\"r\">red<\/b> marbles did your opponent report drawing? ",
            "catchKey": -1,
            "catchResponse": -1,
            "catchTime": 1642833709845,
            "trialTime": 0
        },
        {
            "exptPart": "trial",
            "trialNumber": 64,
            "roleCurrent": "sender",
            "marblesSampled": 100,
            "probRed": 0.5,
            "lambda": 5,
            "drawnRed": 66,
            "reportedRed": 57,
            "inferredRed": 54,
            "playerTrialScore": 0,
            "oppTrialScore": -12,
            "playerTotalScore": 46,
            "oppTotalScore": -326,
            "waitTime": 2292.7433987404997,
            "responseTime": 1642833856245,
            "catchQuestion": "How many <b class=\"r\">red<\/b> marbles did your opponent report drawing? ",
            "catchKey": -1,
            "catchResponse": -1,
            "catchTime": 1642833709845,
            "trialTime": 0
        },
        {
            "exptPart": "trial",
            "trialNumber": 65,
            "roleCurrent": "receiver",
            "marblesSampled": 100,
            "probRed": 0.5,
            "lambda": 5,
            "drawnRed": 64,
            "reportedRed": 72,
            "inferredRed": 68,
            "playerTrialScore": -4,
            "oppTrialScore": 4,
            "playerTotalScore": 42,
            "oppTotalScore": -322,
            "waitTime": 5787.9646948874215,
            "responseTime": 1642833870248,
            "catchQuestion": "How many <b class=\"r\">red<\/b> marbles did your opponent report drawing? ",
            "catchKey": -1,
            "catchResponse": -1,
            "catchTime": 1642833870248,
            "trialTime": 0
        },
        {
            "exptPart": "trial",
            "trialNumber": 66,
            "roleCurrent": "sender",
            "marblesSampled": 100,
            "probRed": 0.5,
            "lambda": 5,
            "drawnRed": 57,
            "reportedRed": 52,
            "inferredRed": 46,
            "playerTrialScore": 0,
            "oppTrialScore": -11,
            "playerTotalScore": 42,
            "oppTotalScore": -333,
            "waitTime": 2916.2480878759566,
            "responseTime": 1642833922454,
            "catchQuestion": "How many <b class=\"r\">red<\/b> marbles did your opponent report drawing? ",
            "catchKey": -1,
            "catchResponse": -1,
            "catchTime": 1642833870248,
            "trialTime": 0
        },
        {
            "exptPart": "trial",
            "trialNumber": 67,
            "roleCurrent": "receiver",
            "marblesSampled": 100,
            "probRed": 0.5,
            "lambda": 5,
            "drawnRed": 33,
            "reportedRed": 38,
            "inferredRed": 36,
            "playerTrialScore": -3,
            "oppTrialScore": 3,
            "playerTotalScore": 39,
            "oppTotalScore": -330,
            "waitTime": 7185.454953156451,
            "responseTime": 1642833939490,
            "catchQuestion": "How many <b class=\"r\">red<\/b> marbles did your opponent report drawing? ",
            "catchKey": -1,
            "catchResponse": -1,
            "catchTime": 1642833870248,
            "trialTime": 0
        },
        {
            "exptPart": "trial",
            "trialNumber": 68,
            "roleCurrent": "sender",
            "marblesSampled": 100,
            "probRed": 0.5,
            "lambda": 5,
            "drawnRed": 76,
            "reportedRed": 64,
            "inferredRed": 60,
            "playerTrialScore": 0,
            "oppTrialScore": -16,
            "playerTotalScore": 39,
            "oppTotalScore": -346,
            "waitTime": 2084.1734218211386,
            "responseTime": 1642833999800,
            "catchQuestion": "How many <b class=\"r\">red<\/b> marbles did your opponent report drawing? ",
            "catchKey": -1,
            "catchResponse": -1,
            "catchTime": 1642833870248,
            "trialTime": 0
        },
        {
            "exptPart": "trial",
            "trialNumber": 69,
            "roleCurrent": "receiver",
            "marblesSampled": 100,
            "probRed": 0.5,
            "lambda": 5,
            "drawnRed": 38,
            "reportedRed": 46,
            "inferredRed": 41,
            "playerTrialScore": -3,
            "oppTrialScore": 3,
            "playerTotalScore": 36,
            "oppTotalScore": -343,
            "waitTime": 5807.1848043461905,
            "responseTime": 1642834011405,
            "catchQuestion": "How many <b class=\"r\">red<\/b> marbles did your opponent report drawing? ",
            "catchKey": -1,
            "catchResponse": -1,
            "catchTime": 1642833870248,
            "trialTime": 0
        },
        {
            "exptPart": "trial",
            "trialNumber": 70,
            "roleCurrent": "sender",
            "marblesSampled": 100,
            "probRed": 0.5,
            "lambda": 5,
            "drawnRed": 64,
            "reportedRed": 57,
            "inferredRed": 54,
            "playerTrialScore": 0,
            "oppTrialScore": -10,
            "playerTotalScore": 36,
            "oppTotalScore": -353,
            "waitTime": 2282.5461175647984,
            "responseTime": 1642834043335,
            "catchQuestion": "How many <b class=\"r\">red<\/b> marbles did your opponent report drawing? ",
            "catchKey": -1,
            "catchResponse": -1,
            "catchTime": 1642834043335,
            "trialTime": 0
        },
        {
            "exptPart": "trial",
            "trialNumber": 71,
            "roleCurrent": "receiver",
            "marblesSampled": 100,
            "probRed": 0.5,
            "lambda": 5,
            "drawnRed": 39,
            "reportedRed": 42,
            "inferredRed": 40,
            "playerTrialScore": -1,
            "oppTrialScore": 1,
            "playerTotalScore": 35,
            "oppTotalScore": -352,
            "waitTime": 6079.43755411794,
            "responseTime": 1642834094663,
            "catchQuestion": "How many <b class=\"r\">red<\/b> marbles did your opponent report drawing? ",
            "catchKey": -1,
            "catchResponse": -1,
            "catchTime": 1642834043335,
            "trialTime": 0
        },
        {
            "exptPart": "trial",
            "trialNumber": 72,
            "roleCurrent": "sender",
            "marblesSampled": 100,
            "probRed": 0.5,
            "lambda": 5,
            "drawnRed": 20,
            "reportedRed": 39,
            "inferredRed": 32,
            "playerTrialScore": 12,
            "oppTrialScore": -12,
            "playerTotalScore": 47,
            "oppTotalScore": -364,
            "waitTime": 2163.8271952304094,
            "responseTime": 1642834188652,
            "catchQuestion": "How many <b class=\"r\">red<\/b> marbles did your opponent report drawing? ",
            "catchKey": -1,
            "catchResponse": -1,
            "catchTime": 1642834043335,
            "trialTime": 0
        },
        {
            "exptPart": "trial",
            "trialNumber": 73,
            "roleCurrent": "receiver",
            "marblesSampled": 100,
            "probRed": 0.5,
            "lambda": 5,
            "drawnRed": 38,
            "reportedRed": 42,
            "inferredRed": 38,
            "playerTrialScore": 0,
            "oppTrialScore": 0,
            "playerTotalScore": 47,
            "oppTotalScore": -364,
            "waitTime": 6782.760973997618,
            "responseTime": 1642834201668,
            "catchQuestion": "How many <b class=\"r\">red<\/b> marbles did your opponent report drawing? ",
            "catchKey": -1,
            "catchResponse": -1,
            "catchTime": 1642834043335,
            "trialTime": 0
        },
        {
            "exptPart": "trial",
            "trialNumber": 74,
            "roleCurrent": "sender",
            "marblesSampled": 100,
            "probRed": 0.5,
            "lambda": 5,
            "drawnRed": 22,
            "reportedRed": 35,
            "inferredRed": 33,
            "playerTrialScore": 11,
            "oppTrialScore": -11,
            "playerTotalScore": 58,
            "oppTotalScore": -375,
            "waitTime": 2424.0875673429946,
            "responseTime": 1642834264727,
            "catchQuestion": "How many <b class=\"r\">red<\/b> marbles did your opponent report drawing? ",
            "catchKey": -1,
            "catchResponse": -1,
            "catchTime": 1642834043335,
            "trialTime": 0
        },
        {
            "exptPart": "trial",
            "trialNumber": 75,
            "roleCurrent": "receiver",
            "marblesSampled": 100,
            "probRed": 0.5,
            "lambda": 5,
            "drawnRed": 66,
            "reportedRed": 70,
            "inferredRed": 66,
            "playerTrialScore": 0,
            "oppTrialScore": 0,
            "playerTotalScore": 58,
            "oppTotalScore": -375,
            "waitTime": 5260.735905757813,
            "responseTime": 1642834274520,
            "catchQuestion": "How many <b class=\"r\">red<\/b> marbles did your opponent report drawing? ",
            "catchKey": -1,
            "catchResponse": -1,
            "catchTime": 1642834274520,
            "trialTime": 0
        },
        {
            "exptPart": "trial",
            "trialNumber": 76,
            "roleCurrent": "sender",
            "marblesSampled": 100,
            "probRed": 0.5,
            "lambda": 5,
            "drawnRed": 53,
            "reportedRed": 47,
            "inferredRed": 40,
            "playerTrialScore": 0,
            "oppTrialScore": -13,
            "playerTotalScore": 58,
            "oppTotalScore": -388,
            "waitTime": 2590.6810536665125,
            "responseTime": 1642834314312,
            "catchQuestion": "How many <b class=\"r\">red<\/b> marbles did your opponent report drawing? ",
            "catchKey": -1,
            "catchResponse": -1,
            "catchTime": 1642834274520,
            "trialTime": 0
        },
        {
            "exptPart": "trial",
            "trialNumber": 77,
            "roleCurrent": "receiver",
            "marblesSampled": 100,
            "probRed": 0.5,
            "lambda": 5,
            "drawnRed": 38,
            "reportedRed": 39,
            "inferredRed": 36,
            "playerTrialScore": -2,
            "oppTrialScore": 0,
            "playerTotalScore": 56,
            "oppTotalScore": -388,
            "waitTime": 5776.595647795729,
            "responseTime": 1642834325929,
            "catchQuestion": "How many <b class=\"r\">red<\/b> marbles did your opponent report drawing? ",
            "catchKey": -1,
            "catchResponse": -1,
            "catchTime": 1642834274520,
            "trialTime": 0
        },
        {
            "exptPart": "trial",
            "trialNumber": 78,
            "roleCurrent": "sender",
            "marblesSampled": 100,
            "probRed": 0.5,
            "lambda": 5,
            "drawnRed": 25,
            "reportedRed": 35,
            "inferredRed": 32,
            "playerTrialScore": 7,
            "oppTrialScore": -7,
            "playerTotalScore": 63,
            "oppTotalScore": -395,
            "waitTime": 2777.7829331165926,
            "responseTime": 1642834403877,
            "catchQuestion": "How many <b class=\"r\">red<\/b> marbles did your opponent report drawing? ",
            "catchKey": -1,
            "catchResponse": -1,
            "catchTime": 1642834274520,
            "trialTime": 0
        },
        {
            "exptPart": "trial",
            "trialNumber": 79,
            "roleCurrent": "receiver",
            "marblesSampled": 100,
            "probRed": 0.5,
            "lambda": 5,
            "drawnRed": 33,
            "reportedRed": 39,
            "inferredRed": 34,
            "playerTrialScore": -1,
            "oppTrialScore": 1,
            "playerTotalScore": 62,
            "oppTotalScore": -394,
            "waitTime": 5268.002137106283,
            "responseTime": 1642834415948,
            "catchQuestion": "How many <b class=\"r\">red<\/b> marbles did your opponent report drawing? ",
            "catchKey": -1,
            "catchResponse": -1,
            "catchTime": 1642834274520,
            "trialTime": 0
        },
        {
            "exptPart": "trial",
            "trialNumber": 80,
            "roleCurrent": "sender",
            "marblesSampled": 100,
            "probRed": 0.5,
            "lambda": 5,
            "drawnRed": 69,
            "reportedRed": 62,
            "inferredRed": 55,
            "playerTrialScore": 0,
            "oppTrialScore": -14,
            "playerTotalScore": 62,
            "oppTotalScore": -408,
            "waitTime": 3166.2268955584022,
            "responseTime": 1642834448453,
            "catchQuestion": "How many <b class=\"r\">red<\/b> marbles did your opponent report drawing? ",
            "catchKey": -1,
            "catchResponse": -1,
            "catchTime": 1642834448453,
            "trialTime": 0
        },
        {
            "exptPart": "trial",
            "trialNumber": 81,
            "roleCurrent": "receiver",
            "marblesSampled": 100,
            "probRed": 0.5,
            "lambda": 5,
            "drawnRed": 27,
            "reportedRed": 34,
            "inferredRed": 32,
            "playerTrialScore": -5,
            "oppTrialScore": 5,
            "playerTotalScore": 57,
            "oppTotalScore": -403,
            "waitTime": 5499.440031805415,
            "responseTime": 1642834478841,
            "catchQuestion": "How many <b class=\"r\">red<\/b> marbles did your opponent report drawing? ",
            "catchKey": -1,
            "catchResponse": -1,
            "catchTime": 1642834448453,
            "trialTime": 0
        },
        {
            "exptPart": "trial",
            "trialNumber": 82,
            "roleCurrent": "sender",
            "marblesSampled": 100,
            "probRed": 0.5,
            "lambda": 5,
            "drawnRed": 72,
            "reportedRed": 64,
            "inferredRed": 61,
            "playerTrialScore": 0,
            "oppTrialScore": -11,
            "playerTotalScore": 57,
            "oppTotalScore": -414,
            "waitTime": 2690.835196946453,
            "responseTime": 1642834515829,
            "catchQuestion": "How many <b class=\"r\">red<\/b> marbles did your opponent report drawing? ",
            "catchKey": -1,
            "catchResponse": -1,
            "catchTime": 1642834448453,
            "trialTime": 0
        },
        {
            "exptPart": "trial",
            "trialNumber": 83,
            "roleCurrent": "receiver",
            "marblesSampled": 100,
            "probRed": 0.5,
            "lambda": 5,
            "drawnRed": 70,
            "reportedRed": 75,
            "inferredRed": 72,
            "playerTrialScore": -2,
            "oppTrialScore": 2,
            "playerTotalScore": 55,
            "oppTotalScore": -412,
            "waitTime": 7097.293146253702,
            "responseTime": 1642834528306,
            "catchQuestion": "How many <b class=\"r\">red<\/b> marbles did your opponent report drawing? ",
            "catchKey": -1,
            "catchResponse": -1,
            "catchTime": 1642834448453,
            "trialTime": 0
        },
        {
            "exptPart": "trial",
            "trialNumber": 84,
            "roleCurrent": "sender",
            "marblesSampled": 100,
            "probRed": 0.5,
            "lambda": 5,
            "drawnRed": 46,
            "reportedRed": 58,
            "inferredRed": 54,
            "playerTrialScore": 8,
            "oppTrialScore": -8,
            "playerTotalScore": 63,
            "oppTotalScore": -420,
            "waitTime": 2514.039623355141,
            "responseTime": 1642834597769,
            "catchQuestion": "How many <b class=\"r\">red<\/b> marbles did you actually draw (before any changes)? ",
            "catchKey": 46,
            "catchResponse": 46,
            "catchTime": 1642834597770,
            "trialTime": 0
        },
        {
            "exptPart": "trial",
            "trialNumber": 85,
            "roleCurrent": "receiver",
            "marblesSampled": 100,
            "probRed": 0.5,
            "lambda": 5,
            "drawnRed": 66,
            "reportedRed": 70,
            "inferredRed": 65,
            "playerTrialScore": -1,
            "oppTrialScore": 0,
            "playerTotalScore": 62,
            "oppTotalScore": -420,
            "waitTime": 5900.2021015831,
            "responseTime": 1642834629922,
            "catchQuestion": "How many <b class=\"r\">red<\/b> marbles did you actually draw (before any changes)? ",
            "catchKey": -1,
            "catchResponse": -1,
            "catchTime": 1642834629922,
            "trialTime": 0
        },
        {
            "exptPart": "trial",
            "trialNumber": 86,
            "roleCurrent": "sender",
            "marblesSampled": 100,
            "probRed": 0.5,
            "lambda": 5,
            "drawnRed": 72,
            "reportedRed": 64,
            "inferredRed": 59,
            "playerTrialScore": 0,
            "oppTrialScore": -13,
            "playerTotalScore": 62,
            "oppTotalScore": -433,
            "waitTime": 3194.336277409136,
            "responseTime": 1642834684236,
            "catchQuestion": "How many <b class=\"r\">red<\/b> marbles did you actually draw (before any changes)? ",
            "catchKey": -1,
            "catchResponse": -1,
            "catchTime": 1642834629922,
            "trialTime": 0
        },
        {
            "exptPart": "trial",
            "trialNumber": 87,
            "roleCurrent": "receiver",
            "marblesSampled": 100,
            "probRed": 0.5,
            "lambda": 5,
            "drawnRed": 4,
            "reportedRed": 9,
            "inferredRed": 8,
            "playerTrialScore": -4,
            "oppTrialScore": 4,
            "playerTotalScore": 58,
            "oppTotalScore": -429,
            "waitTime": 6894.635847937344,
            "responseTime": 1642834701615,
            "catchQuestion": "How many <b class=\"r\">red<\/b> marbles did you actually draw (before any changes)? ",
            "catchKey": -1,
            "catchResponse": -1,
            "catchTime": 1642834629922,
            "trialTime": 0
        },
        {
            "exptPart": "trial",
            "trialNumber": 88,
            "roleCurrent": "sender",
            "marblesSampled": 100,
            "probRed": 0.5,
            "lambda": 5,
            "drawnRed": 54,
            "reportedRed": 46,
            "inferredRed": 40,
            "playerTrialScore": 0,
            "oppTrialScore": -14,
            "playerTotalScore": 58,
            "oppTotalScore": -443,
            "waitTime": 2114.416055246469,
            "responseTime": 1642834778993,
            "catchQuestion": "How many <b class=\"r\">red<\/b> marbles did you actually draw (before any changes)? ",
            "catchKey": -1,
            "catchResponse": -1,
            "catchTime": 1642834629922,
            "trialTime": 0
        },
        {
            "exptPart": "trial",
            "trialNumber": 89,
            "roleCurrent": "receiver",
            "marblesSampled": 100,
            "probRed": 0.5,
            "lambda": 5,
            "drawnRed": 37,
            "reportedRed": 41,
            "inferredRed": 37,
            "playerTrialScore": 0,
            "oppTrialScore": 0,
            "playerTotalScore": 58,
            "oppTotalScore": -443,
            "waitTime": 5699.064354337397,
            "responseTime": 1642834792473,
            "catchQuestion": "How many <b class=\"r\">red<\/b> marbles did you actually draw (before any changes)? ",
            "catchKey": -1,
            "catchResponse": -1,
            "catchTime": 1642834629922,
            "trialTime": 0
        },
        {
            "exptPart": "trial",
            "trialNumber": 90,
            "roleCurrent": "sender",
            "marblesSampled": 100,
            "probRed": 0.5,
            "lambda": 5,
            "drawnRed": 54,
            "reportedRed": 49,
            "inferredRed": 47,
            "playerTrialScore": 0,
            "oppTrialScore": -7,
            "playerTotalScore": 58,
            "oppTotalScore": -450,
            "waitTime": 2764.4732721623827,
            "responseTime": 1642834815873,
            "catchQuestion": "How many <b class=\"r\">red<\/b> marbles did you actually draw (before any changes)? ",
            "catchKey": -1,
            "catchResponse": -1,
            "catchTime": 1642834815873,
            "trialTime": 0
        },
        {
            "exptPart": "trial",
            "trialNumber": 91,
            "roleCurrent": "receiver",
            "marblesSampled": 100,
            "probRed": 0.5,
            "lambda": 5,
            "drawnRed": 27,
            "reportedRed": 34,
            "inferredRed": 32,
            "playerTrialScore": -5,
            "oppTrialScore": 5,
            "playerTotalScore": 53,
            "oppTotalScore": -445,
            "waitTime": 5804.6282671561075,
            "responseTime": 1642834845664,
            "catchQuestion": "How many <b class=\"r\">red<\/b> marbles did you actually draw (before any changes)? ",
            "catchKey": -1,
            "catchResponse": -1,
            "catchTime": 1642834815873,
            "trialTime": 0
        },
        {
            "exptPart": "trial",
            "trialNumber": 92,
            "roleCurrent": "sender",
            "marblesSampled": 100,
            "probRed": 0.5,
            "lambda": 5,
            "drawnRed": 92,
            "reportedRed": 81,
            "inferredRed": 75,
            "playerTrialScore": 0,
            "oppTrialScore": -17,
            "playerTotalScore": 53,
            "oppTotalScore": -462,
            "waitTime": 2159.547001538387,
            "responseTime": 1642834898368,
            "catchQuestion": "How many <b class=\"r\">red<\/b> marbles did you actually draw (before any changes)? ",
            "catchKey": -1,
            "catchResponse": -1,
            "catchTime": 1642834815873,
            "trialTime": 0
        },
        {
            "exptPart": "trial",
            "trialNumber": 93,
            "roleCurrent": "receiver",
            "marblesSampled": 100,
            "probRed": 0.5,
            "lambda": 5,
            "drawnRed": 41,
            "reportedRed": 46,
            "inferredRed": 42,
            "playerTrialScore": -1,
            "oppTrialScore": 1,
            "playerTotalScore": 52,
            "oppTotalScore": -461,
            "waitTime": 6118.0332025183525,
            "responseTime": 1642834909295,
            "catchQuestion": "How many <b class=\"r\">red<\/b> marbles did you actually draw (before any changes)? ",
            "catchKey": -1,
            "catchResponse": -1,
            "catchTime": 1642834815873,
            "trialTime": 0
        },
        {
            "exptPart": "trial",
            "trialNumber": 94,
            "roleCurrent": "sender",
            "marblesSampled": 100,
            "probRed": 0.5,
            "lambda": 5,
            "drawnRed": 77,
            "reportedRed": 70,
            "inferredRed": 67,
            "playerTrialScore": 0,
            "oppTrialScore": -10,
            "playerTotalScore": 52,
            "oppTotalScore": -471,
            "waitTime": 2865.057624386831,
            "responseTime": 1642834938543,
            "catchQuestion": "How many <b class=\"r\">red<\/b> marbles did you actually draw (before any changes)? ",
            "catchKey": 77,
            "catchResponse": 77,
            "catchTime": 1642834938543,
            "trialTime": 0
        },
        {
            "exptPart": "trial",
            "trialNumber": 95,
            "roleCurrent": "receiver",
            "marblesSampled": 100,
            "probRed": 0.5,
            "lambda": 5,
            "drawnRed": 74,
            "reportedRed": 81,
            "inferredRed": 76,
            "playerTrialScore": -2,
            "oppTrialScore": 2,
            "playerTotalScore": 50,
            "oppTotalScore": -469,
            "waitTime": 5652.967780071342,
            "responseTime": 1642834969549,
            "catchQuestion": "How many <b class=\"r\">red<\/b> marbles did you actually draw (before any changes)? ",
            "catchKey": -1,
            "catchResponse": -1,
            "catchTime": 1642834969549,
            "trialTime": 0
        },
        {
            "exptPart": "trial",
            "trialNumber": 96,
            "roleCurrent": "sender",
            "marblesSampled": 100,
            "probRed": 0.5,
            "lambda": 5,
            "drawnRed": 41,
            "reportedRed": 51,
            "inferredRed": 41,
            "playerTrialScore": 0,
            "oppTrialScore": 0,
            "playerTotalScore": 50,
            "oppTotalScore": -469,
            "waitTime": 2344.946247670965,
            "responseTime": 1642835082203,
            "catchQuestion": "How many <b class=\"r\">red<\/b> marbles did you actually draw (before any changes)? ",
            "catchKey": -1,
            "catchResponse": -1,
            "catchTime": 1642834969549,
            "trialTime": 0
        },
        {
            "exptPart": "trial",
            "trialNumber": 97,
            "roleCurrent": "receiver",
            "marblesSampled": 100,
            "probRed": 0.5,
            "lambda": 5,
            "drawnRed": 61,
            "reportedRed": 66,
            "inferredRed": 62,
            "playerTrialScore": -1,
            "oppTrialScore": 1,
            "playerTotalScore": 49,
            "oppTotalScore": -468,
            "waitTime": 5675.922251058265,
            "responseTime": 1642835093335,
            "catchQuestion": "How many <b class=\"r\">red<\/b> marbles did you actually draw (before any changes)? ",
            "catchKey": -1,
            "catchResponse": -1,
            "catchTime": 1642834969549,
            "trialTime": 0
        },
        {
            "exptPart": "trial",
            "trialNumber": 98,
            "roleCurrent": "sender",
            "marblesSampled": 100,
            "probRed": 0.5,
            "lambda": 5,
            "drawnRed": 89,
            "reportedRed": 77,
            "inferredRed": 71,
            "playerTrialScore": 0,
            "oppTrialScore": -18,
            "playerTotalScore": 49,
            "oppTotalScore": -486,
            "waitTime": 3037.9427145598156,
            "responseTime": 1642835156191,
            "catchQuestion": "How many <b class=\"r\">red<\/b> marbles did you actually draw (before any changes)? ",
            "catchKey": -1,
            "catchResponse": -1,
            "catchTime": 1642834969549,
            "trialTime": 0
        },
        {
            "exptPart": "trial",
            "trialNumber": 99,
            "roleCurrent": "receiver",
            "marblesSampled": 100,
            "probRed": 0.5,
            "lambda": 5,
            "drawnRed": 77,
            "reportedRed": 80,
            "inferredRed": 76,
            "playerTrialScore": -1,
            "oppTrialScore": 0,
            "playerTotalScore": 48,
            "oppTotalScore": -486,
            "waitTime": 6010.5312130705615,
            "responseTime": 1642835168289,
            "catchQuestion": "How many <b class=\"r\">red<\/b> marbles did you actually draw (before any changes)? ",
            "catchKey": -1,
            "catchResponse": -1,
            "catchTime": 1642834969549,
            "trialTime": 0
        },
        {
            "exptPart": "trial",
            "trialNumber": 100,
            "roleCurrent": "sender",
            "marblesSampled": 100,
            "probRed": 0.5,
            "lambda": 5,
            "drawnRed": 65,
            "reportedRed": 60,
            "inferredRed": 58,
            "playerTrialScore": 0,
            "oppTrialScore": -7,
            "playerTotalScore": 48,
            "oppTotalScore": -493,
            "waitTime": 2631.7782542309524,
            "responseTime": 1642835192009,
            "catchQuestion": "How many <b class=\"r\">red<\/b> marbles did you actually draw (before any changes)? ",
            "catchKey": -1,
            "catchResponse": -1,
            "catchTime": 1642835192015,
            "trialTime": 0
        }
    ]
}