{
    "client": {
        "type": "sona",
        "experiment_id": 2228,
        "credit_token": "b315147ae43241ea9c65086cb510cfb7",
        "survey_code": "42396",
        "sid": "sona-42396",
        "window": {
            "width": 1440,
            "height": 789
        },
        "screen": {
            "width": 1440,
            "height": 900
        },
        "userAgent": "Mozilla\/5.0 (Macintosh; Intel Mac OS X 10_15_7) AppleWebKit\/537.36 (KHTML, like Gecko) Chrome\/97.0.4692.71 Safari\/537.36",
        "score": 0,
        "bonus": 0
    },
    "expt": {
        "saveURL": "submit.simple.php",
        "trials": 100,
        "practiceTrials": 2,
        "marblesSampled": 100,
        "probRed": 0.5,
        "lambdaAI": 5,
        "roleFirst": "sender",
        "roles": [
            "sender",
            "receiver"
        ],
        "cost": "unif",
        "goal": "over",
        "catchTrials": [
            69,
            17,
            66,
            41,
            24,
            19,
            27,
            45,
            67,
            21
        ],
        "scoreTotal": {
            "player": -180,
            "opp": -237
        },
        "sona": {
            "experiment_id": 2228,
            "credit_token": "b315147ae43241ea9c65086cb510cfb7"
        },
        "pilot": false,
        "debug": false
    },
    "trials": [
        {
            "exptPart": "practice",
            "trialNumber": 1,
            "roleCurrent": "sender",
            "marblesSampled": 100,
            "probRed": 0.5,
            "lambda": 5,
            "drawnRed": 41,
            "reportedRed": 41,
            "inferredRed": 39,
            "playerTrialScore": 0,
            "oppTrialScore": -2,
            "playerTotalScore": 0,
            "oppTotalScore": -2,
            "waitTime": 2739.269748860277,
            "responseTime": 1642319691931,
            "catchQuestion": "How many <b class=\"r\">red<\/b> marbles did you actually draw (before any changes)? ",
            "catchKey": 41,
            "catchResponse": 41,
            "catchTime": 1642319691932,
            "trialTime": 0
        },
        {
            "exptPart": "practice",
            "trialNumber": 2,
            "roleCurrent": "receiver",
            "marblesSampled": 100,
            "probRed": 0.5,
            "lambda": 5,
            "drawnRed": 46,
            "reportedRed": 51,
            "inferredRed": 48,
            "playerTrialScore": -2,
            "oppTrialScore": 2,
            "playerTotalScore": -2,
            "oppTotalScore": 0,
            "waitTime": 7305.048384881832,
            "responseTime": 1642319736681,
            "catchQuestion": "How many <b class=\"r\">red<\/b> marbles did your opponent report drawing? ",
            "catchKey": 51,
            "catchResponse": 48,
            "catchTime": 1642319736681,
            "trialTime": 0
        },
        {
            "exptPart": "trial",
            "trialNumber": 1,
            "roleCurrent": "sender",
            "marblesSampled": 100,
            "probRed": 0.5,
            "lambda": 5,
            "drawnRed": 63,
            "reportedRed": 63,
            "inferredRed": 57,
            "playerTrialScore": 0,
            "oppTrialScore": -6,
            "playerTotalScore": 0,
            "oppTotalScore": -6,
            "waitTime": 2390.2507330573826,
            "responseTime": 1642319788349,
            "catchQuestion": "How many <b class=\"r\">red<\/b> marbles did your opponent report drawing? ",
            "catchKey": -1,
            "catchResponse": -1,
            "catchTime": 1642319736681,
            "trialTime": 0
        },
        {
            "exptPart": "trial",
            "trialNumber": 2,
            "roleCurrent": "receiver",
            "marblesSampled": 100,
            "probRed": 0.5,
            "lambda": 5,
            "drawnRed": 60,
            "reportedRed": 63,
            "inferredRed": 50,
            "playerTrialScore": -10,
            "oppTrialScore": 0,
            "playerTotalScore": -10,
            "oppTotalScore": -6,
            "waitTime": 7331.426950154945,
            "responseTime": 1642319820598,
            "catchQuestion": "How many <b class=\"r\">red<\/b> marbles did your opponent report drawing? ",
            "catchKey": -1,
            "catchResponse": -1,
            "catchTime": 1642319736681,
            "trialTime": 0
        },
        {
            "exptPart": "trial",
            "trialNumber": 3,
            "roleCurrent": "sender",
            "marblesSampled": 100,
            "probRed": 0.5,
            "lambda": 5,
            "drawnRed": 51,
            "reportedRed": 60,
            "inferredRed": 53,
            "playerTrialScore": 2,
            "oppTrialScore": -2,
            "playerTotalScore": -8,
            "oppTotalScore": -8,
            "waitTime": 3063.448282752156,
            "responseTime": 1642319851933,
            "catchQuestion": "How many <b class=\"r\">red<\/b> marbles did your opponent report drawing? ",
            "catchKey": -1,
            "catchResponse": -1,
            "catchTime": 1642319736681,
            "trialTime": 0
        },
        {
            "exptPart": "trial",
            "trialNumber": 4,
            "roleCurrent": "receiver",
            "marblesSampled": 100,
            "probRed": 0.5,
            "lambda": 5,
            "drawnRed": 43,
            "reportedRed": 45,
            "inferredRed": 45,
            "playerTrialScore": -2,
            "oppTrialScore": 2,
            "playerTotalScore": -10,
            "oppTotalScore": -6,
            "waitTime": 5141.381965395355,
            "responseTime": 1642319882282,
            "catchQuestion": "How many <b class=\"r\">red<\/b> marbles did your opponent report drawing? ",
            "catchKey": -1,
            "catchResponse": -1,
            "catchTime": 1642319736681,
            "trialTime": 0
        },
        {
            "exptPart": "trial",
            "trialNumber": 5,
            "roleCurrent": "sender",
            "marblesSampled": 100,
            "probRed": 0.5,
            "lambda": 5,
            "drawnRed": 42,
            "reportedRed": 55,
            "inferredRed": 51,
            "playerTrialScore": 9,
            "oppTrialScore": -9,
            "playerTotalScore": -1,
            "oppTotalScore": -15,
            "waitTime": 2491.7517312541568,
            "responseTime": 1642319909201,
            "catchQuestion": "How many <b class=\"r\">red<\/b> marbles did your opponent report drawing? ",
            "catchKey": -1,
            "catchResponse": -1,
            "catchTime": 1642319909202,
            "trialTime": 0
        },
        {
            "exptPart": "trial",
            "trialNumber": 6,
            "roleCurrent": "receiver",
            "marblesSampled": 100,
            "probRed": 0.5,
            "lambda": 5,
            "drawnRed": 56,
            "reportedRed": 58,
            "inferredRed": 50,
            "playerTrialScore": -6,
            "oppTrialScore": 0,
            "playerTotalScore": -7,
            "oppTotalScore": -15,
            "waitTime": 6446.021698788953,
            "responseTime": 1642319952072,
            "catchQuestion": "How many <b class=\"r\">red<\/b> marbles did your opponent report drawing? ",
            "catchKey": -1,
            "catchResponse": -1,
            "catchTime": 1642319909202,
            "trialTime": 0
        },
        {
            "exptPart": "trial",
            "trialNumber": 7,
            "roleCurrent": "sender",
            "marblesSampled": 100,
            "probRed": 0.5,
            "lambda": 5,
            "drawnRed": 61,
            "reportedRed": 68,
            "inferredRed": 61,
            "playerTrialScore": 0,
            "oppTrialScore": 0,
            "playerTotalScore": -7,
            "oppTotalScore": -15,
            "waitTime": 3111.679439035811,
            "responseTime": 1642319970602,
            "catchQuestion": "How many <b class=\"r\">red<\/b> marbles did your opponent report drawing? ",
            "catchKey": -1,
            "catchResponse": -1,
            "catchTime": 1642319909202,
            "trialTime": 0
        },
        {
            "exptPart": "trial",
            "trialNumber": 8,
            "roleCurrent": "receiver",
            "marblesSampled": 100,
            "probRed": 0.5,
            "lambda": 5,
            "drawnRed": 76,
            "reportedRed": 78,
            "inferredRed": 68,
            "playerTrialScore": -8,
            "oppTrialScore": 0,
            "playerTotalScore": -15,
            "oppTotalScore": -15,
            "waitTime": 6736.214440096397,
            "responseTime": 1642319993417,
            "catchQuestion": "How many <b class=\"r\">red<\/b> marbles did your opponent report drawing? ",
            "catchKey": -1,
            "catchResponse": -1,
            "catchTime": 1642319909202,
            "trialTime": 0
        },
        {
            "exptPart": "trial",
            "trialNumber": 9,
            "roleCurrent": "sender",
            "marblesSampled": 100,
            "probRed": 0.5,
            "lambda": 5,
            "drawnRed": 57,
            "reportedRed": 65,
            "inferredRed": 57,
            "playerTrialScore": 0,
            "oppTrialScore": 0,
            "playerTotalScore": -15,
            "oppTotalScore": -15,
            "waitTime": 3119.801157293916,
            "responseTime": 1642320014836,
            "catchQuestion": "How many <b class=\"r\">red<\/b> marbles did your opponent report drawing? ",
            "catchKey": -1,
            "catchResponse": -1,
            "catchTime": 1642319909202,
            "trialTime": 0
        },
        {
            "exptPart": "trial",
            "trialNumber": 10,
            "roleCurrent": "receiver",
            "marblesSampled": 100,
            "probRed": 0.5,
            "lambda": 5,
            "drawnRed": 53,
            "reportedRed": 56,
            "inferredRed": 50,
            "playerTrialScore": -3,
            "oppTrialScore": 0,
            "playerTotalScore": -18,
            "oppTotalScore": -15,
            "waitTime": 5589.542535966709,
            "responseTime": 1642320027239,
            "catchQuestion": "How many <b class=\"r\">red<\/b> marbles did your opponent report drawing? ",
            "catchKey": -1,
            "catchResponse": -1,
            "catchTime": 1642320027239,
            "trialTime": 0
        },
        {
            "exptPart": "trial",
            "trialNumber": 11,
            "roleCurrent": "sender",
            "marblesSampled": 100,
            "probRed": 0.5,
            "lambda": 5,
            "drawnRed": 39,
            "reportedRed": 58,
            "inferredRed": 54,
            "playerTrialScore": 15,
            "oppTrialScore": -15,
            "playerTotalScore": -3,
            "oppTotalScore": -30,
            "waitTime": 2604.708218030127,
            "responseTime": 1642320058069,
            "catchQuestion": "How many <b class=\"r\">red<\/b> marbles did your opponent report drawing? ",
            "catchKey": -1,
            "catchResponse": -1,
            "catchTime": 1642320027239,
            "trialTime": 0
        },
        {
            "exptPart": "trial",
            "trialNumber": 12,
            "roleCurrent": "receiver",
            "marblesSampled": 100,
            "probRed": 0.5,
            "lambda": 5,
            "drawnRed": 63,
            "reportedRed": 68,
            "inferredRed": 45,
            "playerTrialScore": -18,
            "oppTrialScore": 0,
            "playerTotalScore": -21,
            "oppTotalScore": -30,
            "waitTime": 5831.804929609903,
            "responseTime": 1642320073318,
            "catchQuestion": "How many <b class=\"r\">red<\/b> marbles did your opponent report drawing? ",
            "catchKey": -1,
            "catchResponse": -1,
            "catchTime": 1642320027239,
            "trialTime": 0
        },
        {
            "exptPart": "trial",
            "trialNumber": 13,
            "roleCurrent": "sender",
            "marblesSampled": 100,
            "probRed": 0.5,
            "lambda": 5,
            "drawnRed": 31,
            "reportedRed": 65,
            "inferredRed": 63,
            "playerTrialScore": 32,
            "oppTrialScore": -32,
            "playerTotalScore": 11,
            "oppTotalScore": -62,
            "waitTime": 2451.575660424155,
            "responseTime": 1642320105170,
            "catchQuestion": "How many <b class=\"r\">red<\/b> marbles did your opponent report drawing? ",
            "catchKey": -1,
            "catchResponse": -1,
            "catchTime": 1642320027239,
            "trialTime": 0
        },
        {
            "exptPart": "trial",
            "trialNumber": 14,
            "roleCurrent": "receiver",
            "marblesSampled": 100,
            "probRed": 0.5,
            "lambda": 5,
            "drawnRed": 53,
            "reportedRed": 59,
            "inferredRed": 45,
            "playerTrialScore": -8,
            "oppTrialScore": 0,
            "playerTotalScore": 3,
            "oppTotalScore": -62,
            "waitTime": 5169.298322383342,
            "responseTime": 1642320115686,
            "catchQuestion": "How many <b class=\"r\">red<\/b> marbles did your opponent report drawing? ",
            "catchKey": -1,
            "catchResponse": -1,
            "catchTime": 1642320027239,
            "trialTime": 0
        },
        {
            "exptPart": "trial",
            "trialNumber": 15,
            "roleCurrent": "sender",
            "marblesSampled": 100,
            "probRed": 0.5,
            "lambda": 5,
            "drawnRed": 56,
            "reportedRed": 63,
            "inferredRed": 59,
            "playerTrialScore": 3,
            "oppTrialScore": -3,
            "playerTotalScore": 6,
            "oppTotalScore": -65,
            "waitTime": 2473.1537466843274,
            "responseTime": 1642320134570,
            "catchQuestion": "How many <b class=\"r\">red<\/b> marbles did your opponent report drawing? ",
            "catchKey": -1,
            "catchResponse": -1,
            "catchTime": 1642320134570,
            "trialTime": 0
        },
        {
            "exptPart": "trial",
            "trialNumber": 16,
            "roleCurrent": "receiver",
            "marblesSampled": 100,
            "probRed": 0.5,
            "lambda": 5,
            "drawnRed": 81,
            "reportedRed": 88,
            "inferredRed": 50,
            "playerTrialScore": -31,
            "oppTrialScore": 0,
            "playerTotalScore": -25,
            "oppTotalScore": -65,
            "waitTime": 5595.410664825916,
            "responseTime": 1642320148973,
            "catchQuestion": "How many <b class=\"r\">red<\/b> marbles did your opponent report drawing? ",
            "catchKey": -1,
            "catchResponse": -1,
            "catchTime": 1642320134570,
            "trialTime": 0
        },
        {
            "exptPart": "trial",
            "trialNumber": 17,
            "roleCurrent": "sender",
            "marblesSampled": 100,
            "probRed": 0.5,
            "lambda": 5,
            "drawnRed": 59,
            "reportedRed": 60,
            "inferredRed": 56,
            "playerTrialScore": 0,
            "oppTrialScore": -3,
            "playerTotalScore": -25,
            "oppTotalScore": -68,
            "waitTime": 2329.875864358234,
            "responseTime": 1642320161588,
            "catchQuestion": "How many <b class=\"r\">red<\/b> marbles did your opponent report drawing? ",
            "catchKey": -1,
            "catchResponse": -1,
            "catchTime": 1642320134570,
            "trialTime": 0
        },
        {
            "exptPart": "trial",
            "trialNumber": 18,
            "roleCurrent": "receiver",
            "marblesSampled": 100,
            "probRed": 0.5,
            "lambda": 5,
            "drawnRed": 40,
            "reportedRed": 45,
            "inferredRed": 45,
            "playerTrialScore": -5,
            "oppTrialScore": 5,
            "playerTotalScore": -30,
            "oppTotalScore": -63,
            "waitTime": 6095.726613137573,
            "responseTime": 1642320175670,
            "catchQuestion": "How many <b class=\"r\">red<\/b> marbles did your opponent report drawing? ",
            "catchKey": 45,
            "catchResponse": 45,
            "catchTime": 1642320175670,
            "trialTime": 0
        },
        {
            "exptPart": "trial",
            "trialNumber": 19,
            "roleCurrent": "sender",
            "marblesSampled": 100,
            "probRed": 0.5,
            "lambda": 5,
            "drawnRed": 54,
            "reportedRed": 54,
            "inferredRed": 51,
            "playerTrialScore": 0,
            "oppTrialScore": -3,
            "playerTotalScore": -30,
            "oppTotalScore": -66,
            "waitTime": 2531.503618538705,
            "responseTime": 1642320192806,
            "catchQuestion": "How many <b class=\"r\">red<\/b> marbles did your opponent report drawing? ",
            "catchKey": -1,
            "catchResponse": -1,
            "catchTime": 1642320175670,
            "trialTime": 0
        },
        {
            "exptPart": "trial",
            "trialNumber": 20,
            "roleCurrent": "receiver",
            "marblesSampled": 100,
            "probRed": 0.5,
            "lambda": 5,
            "drawnRed": 28,
            "reportedRed": 31,
            "inferredRed": 31,
            "playerTrialScore": -3,
            "oppTrialScore": 3,
            "playerTotalScore": -33,
            "oppTotalScore": -63,
            "waitTime": 7309.210212467175,
            "responseTime": 1642320206054,
            "catchQuestion": "How many <b class=\"r\">red<\/b> marbles did your opponent report drawing? ",
            "catchKey": 31,
            "catchResponse": 31,
            "catchTime": 1642320206054,
            "trialTime": 0
        },
        {
            "exptPart": "trial",
            "trialNumber": 21,
            "roleCurrent": "sender",
            "marblesSampled": 100,
            "probRed": 0.5,
            "lambda": 5,
            "drawnRed": 24,
            "reportedRed": 40,
            "inferredRed": 38,
            "playerTrialScore": 14,
            "oppTrialScore": -14,
            "playerTotalScore": -19,
            "oppTotalScore": -77,
            "waitTime": 2229.4935611186365,
            "responseTime": 1642320232355,
            "catchQuestion": "How many <b class=\"r\">red<\/b> marbles did your opponent report drawing? ",
            "catchKey": -1,
            "catchResponse": -1,
            "catchTime": 1642320206054,
            "trialTime": 0
        },
        {
            "exptPart": "trial",
            "trialNumber": 22,
            "roleCurrent": "receiver",
            "marblesSampled": 100,
            "probRed": 0.5,
            "lambda": 5,
            "drawnRed": 80,
            "reportedRed": 84,
            "inferredRed": 84,
            "playerTrialScore": -4,
            "oppTrialScore": 4,
            "playerTotalScore": -23,
            "oppTotalScore": -73,
            "waitTime": 6663.69814846908,
            "responseTime": 1642320244671,
            "catchQuestion": "How many <b class=\"r\">red<\/b> marbles did your opponent report drawing? ",
            "catchKey": 84,
            "catchResponse": 84,
            "catchTime": 1642320244671,
            "trialTime": 0
        },
        {
            "exptPart": "trial",
            "trialNumber": 23,
            "roleCurrent": "sender",
            "marblesSampled": 100,
            "probRed": 0.5,
            "lambda": 5,
            "drawnRed": 49,
            "reportedRed": 60,
            "inferredRed": 56,
            "playerTrialScore": 7,
            "oppTrialScore": -7,
            "playerTotalScore": -16,
            "oppTotalScore": -80,
            "waitTime": 2125.7575237122883,
            "responseTime": 1642320265089,
            "catchQuestion": "How many <b class=\"r\">red<\/b> marbles did your opponent report drawing? ",
            "catchKey": -1,
            "catchResponse": -1,
            "catchTime": 1642320244671,
            "trialTime": 0
        },
        {
            "exptPart": "trial",
            "trialNumber": 24,
            "roleCurrent": "receiver",
            "marblesSampled": 100,
            "probRed": 0.5,
            "lambda": 5,
            "drawnRed": 74,
            "reportedRed": 79,
            "inferredRed": 50,
            "playerTrialScore": -24,
            "oppTrialScore": 0,
            "playerTotalScore": -40,
            "oppTotalScore": -80,
            "waitTime": 5574.592738842214,
            "responseTime": 1642320276854,
            "catchQuestion": "How many <b class=\"r\">red<\/b> marbles did your opponent report drawing? ",
            "catchKey": -1,
            "catchResponse": -1,
            "catchTime": 1642320244671,
            "trialTime": 0
        },
        {
            "exptPart": "trial",
            "trialNumber": 25,
            "roleCurrent": "sender",
            "marblesSampled": 100,
            "probRed": 0.5,
            "lambda": 5,
            "drawnRed": 67,
            "reportedRed": 71,
            "inferredRed": 60,
            "playerTrialScore": 0,
            "oppTrialScore": -7,
            "playerTotalScore": -40,
            "oppTotalScore": -87,
            "waitTime": 2353.4727789760664,
            "responseTime": 1642320293039,
            "catchQuestion": "How many <b class=\"r\">red<\/b> marbles did you actually draw (before any changes)? ",
            "catchKey": 67,
            "catchResponse": 71,
            "catchTime": 1642320293039,
            "trialTime": 0
        },
        {
            "exptPart": "trial",
            "trialNumber": 26,
            "roleCurrent": "receiver",
            "marblesSampled": 100,
            "probRed": 0.5,
            "lambda": 5,
            "drawnRed": 53,
            "reportedRed": 56,
            "inferredRed": 56,
            "playerTrialScore": -3,
            "oppTrialScore": 3,
            "playerTotalScore": -43,
            "oppTotalScore": -84,
            "waitTime": 5297.585940160934,
            "responseTime": 1642320327092,
            "catchQuestion": "How many <b class=\"r\">red<\/b> marbles did you actually draw (before any changes)? ",
            "catchKey": -1,
            "catchResponse": -1,
            "catchTime": 1642320293039,
            "trialTime": 0
        },
        {
            "exptPart": "trial",
            "trialNumber": 27,
            "roleCurrent": "sender",
            "marblesSampled": 100,
            "probRed": 0.5,
            "lambda": 5,
            "drawnRed": 39,
            "reportedRed": 43,
            "inferredRed": 40,
            "playerTrialScore": 1,
            "oppTrialScore": -1,
            "playerTotalScore": -42,
            "oppTotalScore": -85,
            "waitTime": 2220.0232531534134,
            "responseTime": 1642320343341,
            "catchQuestion": "How many <b class=\"r\">red<\/b> marbles did you actually draw (before any changes)? ",
            "catchKey": -1,
            "catchResponse": -1,
            "catchTime": 1642320293039,
            "trialTime": 0
        },
        {
            "exptPart": "trial",
            "trialNumber": 28,
            "roleCurrent": "receiver",
            "marblesSampled": 100,
            "probRed": 0.5,
            "lambda": 5,
            "drawnRed": 32,
            "reportedRed": 36,
            "inferredRed": 36,
            "playerTrialScore": -4,
            "oppTrialScore": 4,
            "playerTotalScore": -46,
            "oppTotalScore": -81,
            "waitTime": 6106.284601273999,
            "responseTime": 1642320355239,
            "catchQuestion": "How many <b class=\"r\">red<\/b> marbles did your opponent report drawing? ",
            "catchKey": 36,
            "catchResponse": 36,
            "catchTime": 1642320355239,
            "trialTime": 0
        },
        {
            "exptPart": "trial",
            "trialNumber": 29,
            "roleCurrent": "sender",
            "marblesSampled": 100,
            "probRed": 0.5,
            "lambda": 5,
            "drawnRed": 31,
            "reportedRed": 51,
            "inferredRed": 49,
            "playerTrialScore": 18,
            "oppTrialScore": -18,
            "playerTotalScore": -28,
            "oppTotalScore": -99,
            "waitTime": 3168.2248817644877,
            "responseTime": 1642320390691,
            "catchQuestion": "How many <b class=\"r\">red<\/b> marbles did your opponent report drawing? ",
            "catchKey": -1,
            "catchResponse": -1,
            "catchTime": 1642320355239,
            "trialTime": 0
        },
        {
            "exptPart": "trial",
            "trialNumber": 30,
            "roleCurrent": "receiver",
            "marblesSampled": 100,
            "probRed": 0.5,
            "lambda": 5,
            "drawnRed": 25,
            "reportedRed": 33,
            "inferredRed": 33,
            "playerTrialScore": -8,
            "oppTrialScore": 8,
            "playerTotalScore": -36,
            "oppTotalScore": -91,
            "waitTime": 7159.314084584916,
            "responseTime": 1642320406507,
            "catchQuestion": "How many <b class=\"r\">red<\/b> marbles did your opponent report drawing? ",
            "catchKey": -1,
            "catchResponse": -1,
            "catchTime": 1642320406507,
            "trialTime": 0
        },
        {
            "exptPart": "trial",
            "trialNumber": 31,
            "roleCurrent": "sender",
            "marblesSampled": 100,
            "probRed": 0.5,
            "lambda": 5,
            "drawnRed": 44,
            "reportedRed": 50,
            "inferredRed": 42,
            "playerTrialScore": 0,
            "oppTrialScore": -2,
            "playerTotalScore": -36,
            "oppTotalScore": -93,
            "waitTime": 2885.273131307213,
            "responseTime": 1642320422624,
            "catchQuestion": "How many <b class=\"r\">red<\/b> marbles did your opponent report drawing? ",
            "catchKey": -1,
            "catchResponse": -1,
            "catchTime": 1642320406507,
            "trialTime": 0
        },
        {
            "exptPart": "trial",
            "trialNumber": 32,
            "roleCurrent": "receiver",
            "marblesSampled": 100,
            "probRed": 0.5,
            "lambda": 5,
            "drawnRed": 50,
            "reportedRed": 56,
            "inferredRed": 56,
            "playerTrialScore": -6,
            "oppTrialScore": 6,
            "playerTotalScore": -42,
            "oppTotalScore": -87,
            "waitTime": 6077.957128388109,
            "responseTime": 1642320436024,
            "catchQuestion": "How many <b class=\"r\">red<\/b> marbles did your opponent report drawing? ",
            "catchKey": -1,
            "catchResponse": -1,
            "catchTime": 1642320406507,
            "trialTime": 0
        },
        {
            "exptPart": "trial",
            "trialNumber": 33,
            "roleCurrent": "sender",
            "marblesSampled": 100,
            "probRed": 0.5,
            "lambda": 5,
            "drawnRed": 41,
            "reportedRed": 53,
            "inferredRed": 49,
            "playerTrialScore": 8,
            "oppTrialScore": -8,
            "playerTotalScore": -34,
            "oppTotalScore": -95,
            "waitTime": 2541.964301778272,
            "responseTime": 1642320453692,
            "catchQuestion": "How many <b class=\"r\">red<\/b> marbles did your opponent report drawing? ",
            "catchKey": -1,
            "catchResponse": -1,
            "catchTime": 1642320406507,
            "trialTime": 0
        },
        {
            "exptPart": "trial",
            "trialNumber": 34,
            "roleCurrent": "receiver",
            "marblesSampled": 100,
            "probRed": 0.5,
            "lambda": 5,
            "drawnRed": 41,
            "reportedRed": 47,
            "inferredRed": 47,
            "playerTrialScore": -6,
            "oppTrialScore": 6,
            "playerTotalScore": -40,
            "oppTotalScore": -89,
            "waitTime": 5297.009295792252,
            "responseTime": 1642320471674,
            "catchQuestion": "How many <b class=\"r\">red<\/b> marbles did your opponent report drawing? ",
            "catchKey": -1,
            "catchResponse": -1,
            "catchTime": 1642320406507,
            "trialTime": 0
        },
        {
            "exptPart": "trial",
            "trialNumber": 35,
            "roleCurrent": "sender",
            "marblesSampled": 100,
            "probRed": 0.5,
            "lambda": 5,
            "drawnRed": 30,
            "reportedRed": 35,
            "inferredRed": 31,
            "playerTrialScore": 1,
            "oppTrialScore": -1,
            "playerTotalScore": -39,
            "oppTotalScore": -90,
            "waitTime": 2840.494761180796,
            "responseTime": 1642320483593,
            "catchQuestion": "How many <b class=\"r\">red<\/b> marbles did your opponent report drawing? ",
            "catchKey": -1,
            "catchResponse": -1,
            "catchTime": 1642320483593,
            "trialTime": 0
        },
        {
            "exptPart": "trial",
            "trialNumber": 36,
            "roleCurrent": "receiver",
            "marblesSampled": 100,
            "probRed": 0.5,
            "lambda": 5,
            "drawnRed": 60,
            "reportedRed": 68,
            "inferredRed": 50,
            "playerTrialScore": -10,
            "oppTrialScore": 0,
            "playerTotalScore": -49,
            "oppTotalScore": -90,
            "waitTime": 6394.224635351806,
            "responseTime": 1642320500708,
            "catchQuestion": "How many <b class=\"r\">red<\/b> marbles did your opponent report drawing? ",
            "catchKey": -1,
            "catchResponse": -1,
            "catchTime": 1642320483593,
            "trialTime": 0
        },
        {
            "exptPart": "trial",
            "trialNumber": 37,
            "roleCurrent": "sender",
            "marblesSampled": 100,
            "probRed": 0.5,
            "lambda": 5,
            "drawnRed": 21,
            "reportedRed": 38,
            "inferredRed": 34,
            "playerTrialScore": 13,
            "oppTrialScore": -13,
            "playerTotalScore": -36,
            "oppTotalScore": -103,
            "waitTime": 2541.604731805972,
            "responseTime": 1642320522643,
            "catchQuestion": "How many <b class=\"r\">red<\/b> marbles did your opponent report drawing? ",
            "catchKey": -1,
            "catchResponse": -1,
            "catchTime": 1642320483593,
            "trialTime": 0
        },
        {
            "exptPart": "trial",
            "trialNumber": 38,
            "roleCurrent": "receiver",
            "marblesSampled": 100,
            "probRed": 0.5,
            "lambda": 5,
            "drawnRed": 28,
            "reportedRed": 37,
            "inferredRed": 37,
            "playerTrialScore": -9,
            "oppTrialScore": 9,
            "playerTotalScore": -45,
            "oppTotalScore": -94,
            "waitTime": 5661.803803981167,
            "responseTime": 1642320537792,
            "catchQuestion": "How many <b class=\"r\">red<\/b> marbles did your opponent report drawing? ",
            "catchKey": -1,
            "catchResponse": -1,
            "catchTime": 1642320483593,
            "trialTime": 0
        },
        {
            "exptPart": "trial",
            "trialNumber": 39,
            "roleCurrent": "sender",
            "marblesSampled": 100,
            "probRed": 0.5,
            "lambda": 5,
            "drawnRed": 59,
            "reportedRed": 59,
            "inferredRed": 56,
            "playerTrialScore": 0,
            "oppTrialScore": -3,
            "playerTotalScore": -45,
            "oppTotalScore": -97,
            "waitTime": 2326.4623011394083,
            "responseTime": 1642320546043,
            "catchQuestion": "How many <b class=\"r\">red<\/b> marbles did your opponent report drawing? ",
            "catchKey": -1,
            "catchResponse": -1,
            "catchTime": 1642320483593,
            "trialTime": 0
        },
        {
            "exptPart": "trial",
            "trialNumber": 40,
            "roleCurrent": "receiver",
            "marblesSampled": 100,
            "probRed": 0.5,
            "lambda": 5,
            "drawnRed": 85,
            "reportedRed": 89,
            "inferredRed": 40,
            "playerTrialScore": -45,
            "oppTrialScore": 0,
            "playerTotalScore": -90,
            "oppTotalScore": -97,
            "waitTime": 6207.912886244602,
            "responseTime": 1642320557058,
            "catchQuestion": "How many <b class=\"r\">red<\/b> marbles did your opponent report drawing? ",
            "catchKey": -1,
            "catchResponse": -1,
            "catchTime": 1642320557059,
            "trialTime": 0
        },
        {
            "exptPart": "trial",
            "trialNumber": 41,
            "roleCurrent": "sender",
            "marblesSampled": 100,
            "probRed": 0.5,
            "lambda": 5,
            "drawnRed": 45,
            "reportedRed": 45,
            "inferredRed": 38,
            "playerTrialScore": 0,
            "oppTrialScore": -7,
            "playerTotalScore": -90,
            "oppTotalScore": -104,
            "waitTime": 3047.794275700256,
            "responseTime": 1642320567460,
            "catchQuestion": "How many <b class=\"r\">red<\/b> marbles did your opponent report drawing? ",
            "catchKey": -1,
            "catchResponse": -1,
            "catchTime": 1642320557059,
            "trialTime": 0
        },
        {
            "exptPart": "trial",
            "trialNumber": 42,
            "roleCurrent": "receiver",
            "marblesSampled": 100,
            "probRed": 0.5,
            "lambda": 5,
            "drawnRed": 62,
            "reportedRed": 67,
            "inferredRed": 50,
            "playerTrialScore": -12,
            "oppTrialScore": 0,
            "playerTotalScore": -102,
            "oppTotalScore": -104,
            "waitTime": 7475.787495860278,
            "responseTime": 1642320581492,
            "catchQuestion": "How many <b class=\"r\">red<\/b> marbles did your opponent report drawing? ",
            "catchKey": 67,
            "catchResponse": 67,
            "catchTime": 1642320581492,
            "trialTime": 0
        },
        {
            "exptPart": "trial",
            "trialNumber": 43,
            "roleCurrent": "sender",
            "marblesSampled": 100,
            "probRed": 0.5,
            "lambda": 5,
            "drawnRed": 72,
            "reportedRed": 75,
            "inferredRed": 70,
            "playerTrialScore": 0,
            "oppTrialScore": -2,
            "playerTotalScore": -102,
            "oppTotalScore": -106,
            "waitTime": 2522.9984797655397,
            "responseTime": 1642320599177,
            "catchQuestion": "How many <b class=\"r\">red<\/b> marbles did your opponent report drawing? ",
            "catchKey": -1,
            "catchResponse": -1,
            "catchTime": 1642320581492,
            "trialTime": 0
        },
        {
            "exptPart": "trial",
            "trialNumber": 44,
            "roleCurrent": "receiver",
            "marblesSampled": 100,
            "probRed": 0.5,
            "lambda": 5,
            "drawnRed": 53,
            "reportedRed": 59,
            "inferredRed": 43,
            "playerTrialScore": -10,
            "oppTrialScore": 0,
            "playerTotalScore": -112,
            "oppTotalScore": -106,
            "waitTime": 6555.340206272069,
            "responseTime": 1642320610109,
            "catchQuestion": "How many <b class=\"r\">red<\/b> marbles did your opponent report drawing? ",
            "catchKey": -1,
            "catchResponse": -1,
            "catchTime": 1642320581492,
            "trialTime": 0
        },
        {
            "exptPart": "trial",
            "trialNumber": 45,
            "roleCurrent": "sender",
            "marblesSampled": 100,
            "probRed": 0.5,
            "lambda": 5,
            "drawnRed": 57,
            "reportedRed": 64,
            "inferredRed": 62,
            "playerTrialScore": 5,
            "oppTrialScore": -5,
            "playerTotalScore": -107,
            "oppTotalScore": -111,
            "waitTime": 2417.0293807699272,
            "responseTime": 1642320620860,
            "catchQuestion": "How many <b class=\"r\">red<\/b> marbles did your opponent report drawing? ",
            "catchKey": -1,
            "catchResponse": -1,
            "catchTime": 1642320620860,
            "trialTime": 0
        },
        {
            "exptPart": "trial",
            "trialNumber": 46,
            "roleCurrent": "receiver",
            "marblesSampled": 100,
            "probRed": 0.5,
            "lambda": 5,
            "drawnRed": 39,
            "reportedRed": 45,
            "inferredRed": 35,
            "playerTrialScore": -4,
            "oppTrialScore": 0,
            "playerTotalScore": -111,
            "oppTotalScore": -111,
            "waitTime": 5629.121314464366,
            "responseTime": 1642320637527,
            "catchQuestion": "How many <b class=\"r\">red<\/b> marbles did your opponent report drawing? ",
            "catchKey": 45,
            "catchResponse": 45,
            "catchTime": 1642320637527,
            "trialTime": 0
        },
        {
            "exptPart": "trial",
            "trialNumber": 47,
            "roleCurrent": "sender",
            "marblesSampled": 100,
            "probRed": 0.5,
            "lambda": 5,
            "drawnRed": 77,
            "reportedRed": 77,
            "inferredRed": 70,
            "playerTrialScore": 0,
            "oppTrialScore": -7,
            "playerTotalScore": -111,
            "oppTotalScore": -118,
            "waitTime": 2181.099236015072,
            "responseTime": 1642320651244,
            "catchQuestion": "How many <b class=\"r\">red<\/b> marbles did your opponent report drawing? ",
            "catchKey": -1,
            "catchResponse": -1,
            "catchTime": 1642320637527,
            "trialTime": 0
        },
        {
            "exptPart": "trial",
            "trialNumber": 48,
            "roleCurrent": "receiver",
            "marblesSampled": 100,
            "probRed": 0.5,
            "lambda": 5,
            "drawnRed": 58,
            "reportedRed": 64,
            "inferredRed": 45,
            "playerTrialScore": -13,
            "oppTrialScore": 0,
            "playerTotalScore": -124,
            "oppTotalScore": -118,
            "waitTime": 6272.696326322599,
            "responseTime": 1642320663610,
            "catchQuestion": "How many <b class=\"r\">red<\/b> marbles did your opponent report drawing? ",
            "catchKey": -1,
            "catchResponse": -1,
            "catchTime": 1642320637527,
            "trialTime": 0
        },
        {
            "exptPart": "trial",
            "trialNumber": 49,
            "roleCurrent": "sender",
            "marblesSampled": 100,
            "probRed": 0.5,
            "lambda": 5,
            "drawnRed": 63,
            "reportedRed": 74,
            "inferredRed": 69,
            "playerTrialScore": 6,
            "oppTrialScore": -6,
            "playerTotalScore": -118,
            "oppTotalScore": -124,
            "waitTime": 2065.8918931103062,
            "responseTime": 1642320678178,
            "catchQuestion": "How many <b class=\"r\">red<\/b> marbles did your opponent report drawing? ",
            "catchKey": -1,
            "catchResponse": -1,
            "catchTime": 1642320637527,
            "trialTime": 0
        },
        {
            "exptPart": "trial",
            "trialNumber": 50,
            "roleCurrent": "receiver",
            "marblesSampled": 100,
            "probRed": 0.5,
            "lambda": 5,
            "drawnRed": 50,
            "reportedRed": 57,
            "inferredRed": 45,
            "playerTrialScore": -5,
            "oppTrialScore": 0,
            "playerTotalScore": -123,
            "oppTotalScore": -124,
            "waitTime": 5699.217282218612,
            "responseTime": 1642320689044,
            "catchQuestion": "How many <b class=\"r\">red<\/b> marbles did your opponent report drawing? ",
            "catchKey": -1,
            "catchResponse": -1,
            "catchTime": 1642320689044,
            "trialTime": 0
        },
        {
            "exptPart": "trial",
            "trialNumber": 51,
            "roleCurrent": "sender",
            "marblesSampled": 100,
            "probRed": 0.5,
            "lambda": 5,
            "drawnRed": 78,
            "reportedRed": 85,
            "inferredRed": 81,
            "playerTrialScore": 3,
            "oppTrialScore": -3,
            "playerTotalScore": -120,
            "oppTotalScore": -127,
            "waitTime": 2594.6036029757506,
            "responseTime": 1642320703111,
            "catchQuestion": "How many <b class=\"r\">red<\/b> marbles did your opponent report drawing? ",
            "catchKey": -1,
            "catchResponse": -1,
            "catchTime": 1642320689044,
            "trialTime": 0
        },
        {
            "exptPart": "trial",
            "trialNumber": 52,
            "roleCurrent": "receiver",
            "marblesSampled": 100,
            "probRed": 0.5,
            "lambda": 5,
            "drawnRed": 35,
            "reportedRed": 41,
            "inferredRed": 30,
            "playerTrialScore": -5,
            "oppTrialScore": 0,
            "playerTotalScore": -125,
            "oppTotalScore": -127,
            "waitTime": 5472.029702571483,
            "responseTime": 1642320713964,
            "catchQuestion": "How many <b class=\"r\">red<\/b> marbles did your opponent report drawing? ",
            "catchKey": -1,
            "catchResponse": -1,
            "catchTime": 1642320689044,
            "trialTime": 0
        },
        {
            "exptPart": "trial",
            "trialNumber": 53,
            "roleCurrent": "sender",
            "marblesSampled": 100,
            "probRed": 0.5,
            "lambda": 5,
            "drawnRed": 36,
            "reportedRed": 52,
            "inferredRed": 43,
            "playerTrialScore": 7,
            "oppTrialScore": -7,
            "playerTotalScore": -118,
            "oppTotalScore": -134,
            "waitTime": 2772.781927820258,
            "responseTime": 1642320731496,
            "catchQuestion": "How many <b class=\"r\">red<\/b> marbles did your opponent report drawing? ",
            "catchKey": -1,
            "catchResponse": -1,
            "catchTime": 1642320689044,
            "trialTime": 0
        },
        {
            "exptPart": "trial",
            "trialNumber": 54,
            "roleCurrent": "receiver",
            "marblesSampled": 100,
            "probRed": 0.5,
            "lambda": 5,
            "drawnRed": 39,
            "reportedRed": 42,
            "inferredRed": 38,
            "playerTrialScore": -1,
            "oppTrialScore": 0,
            "playerTotalScore": -119,
            "oppTotalScore": -134,
            "waitTime": 5302.931316718679,
            "responseTime": 1642320743513,
            "catchQuestion": "How many <b class=\"r\">red<\/b> marbles did your opponent report drawing? ",
            "catchKey": -1,
            "catchResponse": -1,
            "catchTime": 1642320689044,
            "trialTime": 0
        },
        {
            "exptPart": "trial",
            "trialNumber": 55,
            "roleCurrent": "sender",
            "marblesSampled": 100,
            "probRed": 0.5,
            "lambda": 5,
            "drawnRed": 51,
            "reportedRed": 57,
            "inferredRed": 49,
            "playerTrialScore": 0,
            "oppTrialScore": -2,
            "playerTotalScore": -119,
            "oppTotalScore": -136,
            "waitTime": 3043.849551940466,
            "responseTime": 1642320756412,
            "catchQuestion": "How many <b class=\"r\">red<\/b> marbles did your opponent report drawing? ",
            "catchKey": -1,
            "catchResponse": -1,
            "catchTime": 1642320756413,
            "trialTime": 0
        },
        {
            "exptPart": "trial",
            "trialNumber": 56,
            "roleCurrent": "receiver",
            "marblesSampled": 100,
            "probRed": 0.5,
            "lambda": 5,
            "drawnRed": 87,
            "reportedRed": 93,
            "inferredRed": 50,
            "playerTrialScore": -37,
            "oppTrialScore": 0,
            "playerTotalScore": -156,
            "oppTotalScore": -136,
            "waitTime": 7487.237356230192,
            "responseTime": 1642320774028,
            "catchQuestion": "How many <b class=\"r\">red<\/b> marbles did your opponent report drawing? ",
            "catchKey": -1,
            "catchResponse": -1,
            "catchTime": 1642320756413,
            "trialTime": 0
        },
        {
            "exptPart": "trial",
            "trialNumber": 57,
            "roleCurrent": "sender",
            "marblesSampled": 100,
            "probRed": 0.5,
            "lambda": 5,
            "drawnRed": 81,
            "reportedRed": 90,
            "inferredRed": 85,
            "playerTrialScore": 4,
            "oppTrialScore": -4,
            "playerTotalScore": -152,
            "oppTotalScore": -140,
            "waitTime": 2326.3316530438306,
            "responseTime": 1642320789063,
            "catchQuestion": "How many <b class=\"r\">red<\/b> marbles did your opponent report drawing? ",
            "catchKey": -1,
            "catchResponse": -1,
            "catchTime": 1642320756413,
            "trialTime": 0
        },
        {
            "exptPart": "trial",
            "trialNumber": 58,
            "roleCurrent": "receiver",
            "marblesSampled": 100,
            "probRed": 0.5,
            "lambda": 5,
            "drawnRed": 56,
            "reportedRed": 58,
            "inferredRed": 40,
            "playerTrialScore": -16,
            "oppTrialScore": 0,
            "playerTotalScore": -168,
            "oppTotalScore": -140,
            "waitTime": 7368.711494217862,
            "responseTime": 1642320801346,
            "catchQuestion": "How many <b class=\"r\">red<\/b> marbles did your opponent report drawing? ",
            "catchKey": -1,
            "catchResponse": -1,
            "catchTime": 1642320756413,
            "trialTime": 0
        },
        {
            "exptPart": "trial",
            "trialNumber": 59,
            "roleCurrent": "sender",
            "marblesSampled": 100,
            "probRed": 0.5,
            "lambda": 5,
            "drawnRed": 61,
            "reportedRed": 65,
            "inferredRed": 60,
            "playerTrialScore": 0,
            "oppTrialScore": -1,
            "playerTotalScore": -168,
            "oppTotalScore": -141,
            "waitTime": 2545.2824948012158,
            "responseTime": 1642320812997,
            "catchQuestion": "How many <b class=\"r\">red<\/b> marbles did your opponent report drawing? ",
            "catchKey": -1,
            "catchResponse": -1,
            "catchTime": 1642320756413,
            "trialTime": 0
        },
        {
            "exptPart": "trial",
            "trialNumber": 60,
            "roleCurrent": "receiver",
            "marblesSampled": 100,
            "probRed": 0.5,
            "lambda": 5,
            "drawnRed": 57,
            "reportedRed": 61,
            "inferredRed": 61,
            "playerTrialScore": -4,
            "oppTrialScore": 4,
            "playerTotalScore": -172,
            "oppTotalScore": -137,
            "waitTime": 6658.902157261678,
            "responseTime": 1642320825363,
            "catchQuestion": "How many <b class=\"r\">red<\/b> marbles did your opponent report drawing? ",
            "catchKey": -1,
            "catchResponse": -1,
            "catchTime": 1642320825363,
            "trialTime": 0
        },
        {
            "exptPart": "trial",
            "trialNumber": 61,
            "roleCurrent": "sender",
            "marblesSampled": 100,
            "probRed": 0.5,
            "lambda": 5,
            "drawnRed": 54,
            "reportedRed": 77,
            "inferredRed": 73,
            "playerTrialScore": 19,
            "oppTrialScore": -19,
            "playerTotalScore": -153,
            "oppTotalScore": -156,
            "waitTime": 2199.1691916520285,
            "responseTime": 1642320852463,
            "catchQuestion": "How many <b class=\"r\">red<\/b> marbles did your opponent report drawing? ",
            "catchKey": -1,
            "catchResponse": -1,
            "catchTime": 1642320825363,
            "trialTime": 0
        },
        {
            "exptPart": "trial",
            "trialNumber": 62,
            "roleCurrent": "receiver",
            "marblesSampled": 100,
            "probRed": 0.5,
            "lambda": 5,
            "drawnRed": 47,
            "reportedRed": 54,
            "inferredRed": 54,
            "playerTrialScore": -7,
            "oppTrialScore": 7,
            "playerTotalScore": -160,
            "oppTotalScore": -149,
            "waitTime": 7456.015942439966,
            "responseTime": 1642320863996,
            "catchQuestion": "How many <b class=\"r\">red<\/b> marbles did your opponent report drawing? ",
            "catchKey": -1,
            "catchResponse": -1,
            "catchTime": 1642320825363,
            "trialTime": 0
        },
        {
            "exptPart": "trial",
            "trialNumber": 63,
            "roleCurrent": "sender",
            "marblesSampled": 100,
            "probRed": 0.5,
            "lambda": 5,
            "drawnRed": 49,
            "reportedRed": 63,
            "inferredRed": 61,
            "playerTrialScore": 12,
            "oppTrialScore": -12,
            "playerTotalScore": -148,
            "oppTotalScore": -161,
            "waitTime": 3033.717210769566,
            "responseTime": 1642320883632,
            "catchQuestion": "How many <b class=\"r\">red<\/b> marbles did your opponent report drawing? ",
            "catchKey": -1,
            "catchResponse": -1,
            "catchTime": 1642320825363,
            "trialTime": 0
        },
        {
            "exptPart": "trial",
            "trialNumber": 64,
            "roleCurrent": "receiver",
            "marblesSampled": 100,
            "probRed": 0.5,
            "lambda": 5,
            "drawnRed": 75,
            "reportedRed": 78,
            "inferredRed": 60,
            "playerTrialScore": -15,
            "oppTrialScore": 0,
            "playerTotalScore": -163,
            "oppTotalScore": -161,
            "waitTime": 5416.073442986444,
            "responseTime": 1642320894730,
            "catchQuestion": "How many <b class=\"r\">red<\/b> marbles did your opponent report drawing? ",
            "catchKey": -1,
            "catchResponse": -1,
            "catchTime": 1642320825363,
            "trialTime": 0
        },
        {
            "exptPart": "trial",
            "trialNumber": 65,
            "roleCurrent": "sender",
            "marblesSampled": 100,
            "probRed": 0.5,
            "lambda": 5,
            "drawnRed": 69,
            "reportedRed": 69,
            "inferredRed": 60,
            "playerTrialScore": 0,
            "oppTrialScore": -9,
            "playerTotalScore": -163,
            "oppTotalScore": -170,
            "waitTime": 2656.4664220997474,
            "responseTime": 1642320906715,
            "catchQuestion": "How many <b class=\"r\">red<\/b> marbles did your opponent report drawing? ",
            "catchKey": -1,
            "catchResponse": -1,
            "catchTime": 1642320906715,
            "trialTime": 0
        },
        {
            "exptPart": "trial",
            "trialNumber": 66,
            "roleCurrent": "receiver",
            "marblesSampled": 100,
            "probRed": 0.5,
            "lambda": 5,
            "drawnRed": 24,
            "reportedRed": 30,
            "inferredRed": 30,
            "playerTrialScore": -6,
            "oppTrialScore": 6,
            "playerTotalScore": -169,
            "oppTotalScore": -164,
            "waitTime": 5543.98038929092,
            "responseTime": 1642320921414,
            "catchQuestion": "How many <b class=\"r\">red<\/b> marbles did your opponent report drawing? ",
            "catchKey": -1,
            "catchResponse": -1,
            "catchTime": 1642320906715,
            "trialTime": 0
        },
        {
            "exptPart": "trial",
            "trialNumber": 67,
            "roleCurrent": "sender",
            "marblesSampled": 100,
            "probRed": 0.5,
            "lambda": 5,
            "drawnRed": 64,
            "reportedRed": 64,
            "inferredRed": 58,
            "playerTrialScore": 0,
            "oppTrialScore": -6,
            "playerTotalScore": -169,
            "oppTotalScore": -170,
            "waitTime": 2080.3663347692277,
            "responseTime": 1642320992299,
            "catchQuestion": "How many <b class=\"r\">red<\/b> marbles did you actually draw (before any changes)? ",
            "catchKey": 64,
            "catchResponse": 64,
            "catchTime": 1642320992299,
            "trialTime": 0
        },
        {
            "exptPart": "trial",
            "trialNumber": 68,
            "roleCurrent": "receiver",
            "marblesSampled": 100,
            "probRed": 0.5,
            "lambda": 5,
            "drawnRed": 52,
            "reportedRed": 59,
            "inferredRed": 50,
            "playerTrialScore": -2,
            "oppTrialScore": 0,
            "playerTotalScore": -171,
            "oppTotalScore": -170,
            "waitTime": 6820.952074201209,
            "responseTime": 1642321018981,
            "catchQuestion": "How many <b class=\"r\">red<\/b> marbles did your opponent report drawing? ",
            "catchKey": 59,
            "catchResponse": 59,
            "catchTime": 1642321018981,
            "trialTime": 0
        },
        {
            "exptPart": "trial",
            "trialNumber": 69,
            "roleCurrent": "sender",
            "marblesSampled": 100,
            "probRed": 0.5,
            "lambda": 5,
            "drawnRed": 64,
            "reportedRed": 69,
            "inferredRed": 65,
            "playerTrialScore": 1,
            "oppTrialScore": -1,
            "playerTotalScore": -170,
            "oppTotalScore": -171,
            "waitTime": 2695.3110471827504,
            "responseTime": 1642321037500,
            "catchQuestion": "How many <b class=\"r\">red<\/b> marbles did your opponent report drawing? ",
            "catchKey": -1,
            "catchResponse": -1,
            "catchTime": 1642321018981,
            "trialTime": 0
        },
        {
            "exptPart": "trial",
            "trialNumber": 70,
            "roleCurrent": "receiver",
            "marblesSampled": 100,
            "probRed": 0.5,
            "lambda": 5,
            "drawnRed": 75,
            "reportedRed": 80,
            "inferredRed": 50,
            "playerTrialScore": -25,
            "oppTrialScore": 0,
            "playerTotalScore": -195,
            "oppTotalScore": -171,
            "waitTime": 5508.603602133273,
            "responseTime": 1642321047582,
            "catchQuestion": "How many <b class=\"r\">red<\/b> marbles did your opponent report drawing? ",
            "catchKey": 80,
            "catchResponse": 80,
            "catchTime": 1642321047582,
            "trialTime": 0
        },
        {
            "exptPart": "trial",
            "trialNumber": 71,
            "roleCurrent": "sender",
            "marblesSampled": 100,
            "probRed": 0.5,
            "lambda": 5,
            "drawnRed": 35,
            "reportedRed": 79,
            "inferredRed": 77,
            "playerTrialScore": 42,
            "oppTrialScore": -42,
            "playerTotalScore": -153,
            "oppTotalScore": -213,
            "waitTime": 2403.92820979631,
            "responseTime": 1642321084934,
            "catchQuestion": "How many <b class=\"r\">red<\/b> marbles did your opponent report drawing? ",
            "catchKey": -1,
            "catchResponse": -1,
            "catchTime": 1642321047582,
            "trialTime": 0
        },
        {
            "exptPart": "trial",
            "trialNumber": 72,
            "roleCurrent": "receiver",
            "marblesSampled": 100,
            "probRed": 0.5,
            "lambda": 5,
            "drawnRed": 55,
            "reportedRed": 58,
            "inferredRed": 58,
            "playerTrialScore": -3,
            "oppTrialScore": 3,
            "playerTotalScore": -156,
            "oppTotalScore": -210,
            "waitTime": 6559.738613256748,
            "responseTime": 1642321095966,
            "catchQuestion": "How many <b class=\"r\">red<\/b> marbles did your opponent report drawing? ",
            "catchKey": -1,
            "catchResponse": -1,
            "catchTime": 1642321047582,
            "trialTime": 0
        },
        {
            "exptPart": "trial",
            "trialNumber": 73,
            "roleCurrent": "sender",
            "marblesSampled": 100,
            "probRed": 0.5,
            "lambda": 5,
            "drawnRed": 34,
            "reportedRed": 44,
            "inferredRed": 41,
            "playerTrialScore": 7,
            "oppTrialScore": -7,
            "playerTotalScore": -149,
            "oppTotalScore": -217,
            "waitTime": 2554.0951164192743,
            "responseTime": 1642321109701,
            "catchQuestion": "How many <b class=\"r\">red<\/b> marbles did your opponent report drawing? ",
            "catchKey": -1,
            "catchResponse": -1,
            "catchTime": 1642321047582,
            "trialTime": 0
        },
        {
            "exptPart": "trial",
            "trialNumber": 74,
            "roleCurrent": "receiver",
            "marblesSampled": 100,
            "probRed": 0.5,
            "lambda": 5,
            "drawnRed": 25,
            "reportedRed": 29,
            "inferredRed": 29,
            "playerTrialScore": -4,
            "oppTrialScore": 4,
            "playerTotalScore": -153,
            "oppTotalScore": -213,
            "waitTime": 5572.5669992816765,
            "responseTime": 1642321119267,
            "catchQuestion": "How many <b class=\"r\">red<\/b> marbles did your opponent report drawing? ",
            "catchKey": -1,
            "catchResponse": -1,
            "catchTime": 1642321047582,
            "trialTime": 0
        },
        {
            "exptPart": "trial",
            "trialNumber": 75,
            "roleCurrent": "sender",
            "marblesSampled": 100,
            "probRed": 0.5,
            "lambda": 5,
            "drawnRed": 71,
            "reportedRed": 77,
            "inferredRed": 73,
            "playerTrialScore": 2,
            "oppTrialScore": -2,
            "playerTotalScore": -151,
            "oppTotalScore": -215,
            "waitTime": 2752.7635009915157,
            "responseTime": 1642321130835,
            "catchQuestion": "How many <b class=\"r\">red<\/b> marbles did your opponent report drawing? ",
            "catchKey": -1,
            "catchResponse": -1,
            "catchTime": 1642321130835,
            "trialTime": 0
        },
        {
            "exptPart": "trial",
            "trialNumber": 76,
            "roleCurrent": "receiver",
            "marblesSampled": 100,
            "probRed": 0.5,
            "lambda": 5,
            "drawnRed": 53,
            "reportedRed": 58,
            "inferredRed": 58,
            "playerTrialScore": -5,
            "oppTrialScore": 5,
            "playerTotalScore": -156,
            "oppTotalScore": -210,
            "waitTime": 6458.287361872373,
            "responseTime": 1642321143699,
            "catchQuestion": "How many <b class=\"r\">red<\/b> marbles did your opponent report drawing? ",
            "catchKey": -1,
            "catchResponse": -1,
            "catchTime": 1642321130835,
            "trialTime": 0
        },
        {
            "exptPart": "trial",
            "trialNumber": 77,
            "roleCurrent": "sender",
            "marblesSampled": 100,
            "probRed": 0.5,
            "lambda": 5,
            "drawnRed": 68,
            "reportedRed": 68,
            "inferredRed": 64,
            "playerTrialScore": 0,
            "oppTrialScore": -4,
            "playerTotalScore": -156,
            "oppTotalScore": -214,
            "waitTime": 2861.1584486766787,
            "responseTime": 1642321154069,
            "catchQuestion": "How many <b class=\"r\">red<\/b> marbles did your opponent report drawing? ",
            "catchKey": -1,
            "catchResponse": -1,
            "catchTime": 1642321130835,
            "trialTime": 0
        },
        {
            "exptPart": "trial",
            "trialNumber": 78,
            "roleCurrent": "receiver",
            "marblesSampled": 100,
            "probRed": 0.5,
            "lambda": 5,
            "drawnRed": 45,
            "reportedRed": 50,
            "inferredRed": 50,
            "playerTrialScore": -5,
            "oppTrialScore": 5,
            "playerTotalScore": -161,
            "oppTotalScore": -209,
            "waitTime": 5920.238975803304,
            "responseTime": 1642321163684,
            "catchQuestion": "How many <b class=\"r\">red<\/b> marbles did your opponent report drawing? ",
            "catchKey": -1,
            "catchResponse": -1,
            "catchTime": 1642321130835,
            "trialTime": 0
        },
        {
            "exptPart": "trial",
            "trialNumber": 79,
            "roleCurrent": "sender",
            "marblesSampled": 100,
            "probRed": 0.5,
            "lambda": 5,
            "drawnRed": 63,
            "reportedRed": 63,
            "inferredRed": 59,
            "playerTrialScore": 0,
            "oppTrialScore": -4,
            "playerTotalScore": -161,
            "oppTotalScore": -213,
            "waitTime": 3228.73659970585,
            "responseTime": 1642321173585,
            "catchQuestion": "How many <b class=\"r\">red<\/b> marbles did your opponent report drawing? ",
            "catchKey": -1,
            "catchResponse": -1,
            "catchTime": 1642321130835,
            "trialTime": 0
        },
        {
            "exptPart": "trial",
            "trialNumber": 80,
            "roleCurrent": "receiver",
            "marblesSampled": 100,
            "probRed": 0.5,
            "lambda": 5,
            "drawnRed": 27,
            "reportedRed": 32,
            "inferredRed": 32,
            "playerTrialScore": -5,
            "oppTrialScore": 5,
            "playerTotalScore": -166,
            "oppTotalScore": -208,
            "waitTime": 7489.691040386221,
            "responseTime": 1642321185134,
            "catchQuestion": "How many <b class=\"r\">red<\/b> marbles did your opponent report drawing? ",
            "catchKey": -1,
            "catchResponse": -1,
            "catchTime": 1642321185134,
            "trialTime": 0
        },
        {
            "exptPart": "trial",
            "trialNumber": 81,
            "roleCurrent": "sender",
            "marblesSampled": 100,
            "probRed": 0.5,
            "lambda": 5,
            "drawnRed": 93,
            "reportedRed": 97,
            "inferredRed": 93,
            "playerTrialScore": 0,
            "oppTrialScore": 0,
            "playerTotalScore": -166,
            "oppTotalScore": -208,
            "waitTime": 3011.289426749663,
            "responseTime": 1642321206202,
            "catchQuestion": "How many <b class=\"r\">red<\/b> marbles did your opponent report drawing? ",
            "catchKey": -1,
            "catchResponse": -1,
            "catchTime": 1642321185134,
            "trialTime": 0
        },
        {
            "exptPart": "trial",
            "trialNumber": 82,
            "roleCurrent": "receiver",
            "marblesSampled": 100,
            "probRed": 0.5,
            "lambda": 5,
            "drawnRed": 72,
            "reportedRed": 76,
            "inferredRed": 60,
            "playerTrialScore": -12,
            "oppTrialScore": 0,
            "playerTotalScore": -178,
            "oppTotalScore": -208,
            "waitTime": 7196.9027086191145,
            "responseTime": 1642321230851,
            "catchQuestion": "How many <b class=\"r\">red<\/b> marbles did your opponent report drawing? ",
            "catchKey": -1,
            "catchResponse": -1,
            "catchTime": 1642321185134,
            "trialTime": 0
        },
        {
            "exptPart": "trial",
            "trialNumber": 83,
            "roleCurrent": "sender",
            "marblesSampled": 100,
            "probRed": 0.5,
            "lambda": 5,
            "drawnRed": 58,
            "reportedRed": 65,
            "inferredRed": 57,
            "playerTrialScore": 0,
            "oppTrialScore": -1,
            "playerTotalScore": -178,
            "oppTotalScore": -209,
            "waitTime": 2098.439268317745,
            "responseTime": 1642321244818,
            "catchQuestion": "How many <b class=\"r\">red<\/b> marbles did your opponent report drawing? ",
            "catchKey": -1,
            "catchResponse": -1,
            "catchTime": 1642321185134,
            "trialTime": 0
        },
        {
            "exptPart": "trial",
            "trialNumber": 84,
            "roleCurrent": "receiver",
            "marblesSampled": 100,
            "probRed": 0.5,
            "lambda": 5,
            "drawnRed": 32,
            "reportedRed": 38,
            "inferredRed": 35,
            "playerTrialScore": -3,
            "oppTrialScore": 3,
            "playerTotalScore": -181,
            "oppTotalScore": -206,
            "waitTime": 5741.100624626615,
            "responseTime": 1642321256401,
            "catchQuestion": "How many <b class=\"r\">red<\/b> marbles did your opponent report drawing? ",
            "catchKey": -1,
            "catchResponse": -1,
            "catchTime": 1642321185134,
            "trialTime": 0
        },
        {
            "exptPart": "trial",
            "trialNumber": 85,
            "roleCurrent": "sender",
            "marblesSampled": 100,
            "probRed": 0.5,
            "lambda": 5,
            "drawnRed": 56,
            "reportedRed": 67,
            "inferredRed": 62,
            "playerTrialScore": 6,
            "oppTrialScore": -6,
            "playerTotalScore": -175,
            "oppTotalScore": -212,
            "waitTime": 2591.608116306914,
            "responseTime": 1642321270003,
            "catchQuestion": "How many <b class=\"r\">red<\/b> marbles did your opponent report drawing? ",
            "catchKey": -1,
            "catchResponse": -1,
            "catchTime": 1642321270003,
            "trialTime": 0
        },
        {
            "exptPart": "trial",
            "trialNumber": 86,
            "roleCurrent": "receiver",
            "marblesSampled": 100,
            "probRed": 0.5,
            "lambda": 5,
            "drawnRed": 61,
            "reportedRed": 66,
            "inferredRed": 56,
            "playerTrialScore": -5,
            "oppTrialScore": 0,
            "playerTotalScore": -180,
            "oppTotalScore": -212,
            "waitTime": 5412.280418645708,
            "responseTime": 1642321282735,
            "catchQuestion": "How many <b class=\"r\">red<\/b> marbles did your opponent report drawing? ",
            "catchKey": -1,
            "catchResponse": -1,
            "catchTime": 1642321270003,
            "trialTime": 0
        },
        {
            "exptPart": "trial",
            "trialNumber": 87,
            "roleCurrent": "sender",
            "marblesSampled": 100,
            "probRed": 0.5,
            "lambda": 5,
            "drawnRed": 83,
            "reportedRed": 83,
            "inferredRed": 79,
            "playerTrialScore": 0,
            "oppTrialScore": -4,
            "playerTotalScore": -180,
            "oppTotalScore": -216,
            "waitTime": 2346.5257168674275,
            "responseTime": 1642321292087,
            "catchQuestion": "How many <b class=\"r\">red<\/b> marbles did your opponent report drawing? ",
            "catchKey": -1,
            "catchResponse": -1,
            "catchTime": 1642321270003,
            "trialTime": 0
        },
        {
            "exptPart": "trial",
            "trialNumber": 88,
            "roleCurrent": "receiver",
            "marblesSampled": 100,
            "probRed": 0.5,
            "lambda": 5,
            "drawnRed": 41,
            "reportedRed": 44,
            "inferredRed": 30,
            "playerTrialScore": -11,
            "oppTrialScore": 0,
            "playerTotalScore": -191,
            "oppTotalScore": -216,
            "waitTime": 7288.341321242178,
            "responseTime": 1642321307285,
            "catchQuestion": "How many <b class=\"r\">red<\/b> marbles did your opponent report drawing? ",
            "catchKey": -1,
            "catchResponse": -1,
            "catchTime": 1642321270003,
            "trialTime": 0
        },
        {
            "exptPart": "trial",
            "trialNumber": 89,
            "roleCurrent": "sender",
            "marblesSampled": 100,
            "probRed": 0.5,
            "lambda": 5,
            "drawnRed": 31,
            "reportedRed": 39,
            "inferredRed": 34,
            "playerTrialScore": 3,
            "oppTrialScore": -3,
            "playerTotalScore": -188,
            "oppTotalScore": -219,
            "waitTime": 3097.250016867251,
            "responseTime": 1642321322321,
            "catchQuestion": "How many <b class=\"r\">red<\/b> marbles did your opponent report drawing? ",
            "catchKey": -1,
            "catchResponse": -1,
            "catchTime": 1642321270003,
            "trialTime": 0
        },
        {
            "exptPart": "trial",
            "trialNumber": 90,
            "roleCurrent": "receiver",
            "marblesSampled": 100,
            "probRed": 0.5,
            "lambda": 5,
            "drawnRed": 44,
            "reportedRed": 46,
            "inferredRed": 46,
            "playerTrialScore": -2,
            "oppTrialScore": 2,
            "playerTotalScore": -190,
            "oppTotalScore": -217,
            "waitTime": 6312.370412633749,
            "responseTime": 1642321334235,
            "catchQuestion": "How many <b class=\"r\">red<\/b> marbles did your opponent report drawing? ",
            "catchKey": -1,
            "catchResponse": -1,
            "catchTime": 1642321334235,
            "trialTime": 0
        },
        {
            "exptPart": "trial",
            "trialNumber": 91,
            "roleCurrent": "sender",
            "marblesSampled": 100,
            "probRed": 0.5,
            "lambda": 5,
            "drawnRed": 34,
            "reportedRed": 56,
            "inferredRed": 51,
            "playerTrialScore": 17,
            "oppTrialScore": -17,
            "playerTotalScore": -173,
            "oppTotalScore": -234,
            "waitTime": 2373.3941492825943,
            "responseTime": 1642321359504,
            "catchQuestion": "How many <b class=\"r\">red<\/b> marbles did your opponent report drawing? ",
            "catchKey": -1,
            "catchResponse": -1,
            "catchTime": 1642321334235,
            "trialTime": 0
        },
        {
            "exptPart": "trial",
            "trialNumber": 92,
            "roleCurrent": "receiver",
            "marblesSampled": 100,
            "probRed": 0.5,
            "lambda": 5,
            "drawnRed": 26,
            "reportedRed": 34,
            "inferredRed": 34,
            "playerTrialScore": -8,
            "oppTrialScore": 8,
            "playerTotalScore": -181,
            "oppTotalScore": -226,
            "waitTime": 7140.235537087404,
            "responseTime": 1642321373186,
            "catchQuestion": "How many <b class=\"r\">red<\/b> marbles did your opponent report drawing? ",
            "catchKey": -1,
            "catchResponse": -1,
            "catchTime": 1642321334235,
            "trialTime": 0
        },
        {
            "exptPart": "trial",
            "trialNumber": 93,
            "roleCurrent": "sender",
            "marblesSampled": 100,
            "probRed": 0.5,
            "lambda": 5,
            "drawnRed": 62,
            "reportedRed": 67,
            "inferredRed": 66,
            "playerTrialScore": 4,
            "oppTrialScore": -4,
            "playerTotalScore": -177,
            "oppTotalScore": -230,
            "waitTime": 2706.036117452356,
            "responseTime": 1642321384620,
            "catchQuestion": "How many <b class=\"r\">red<\/b> marbles did your opponent report drawing? ",
            "catchKey": -1,
            "catchResponse": -1,
            "catchTime": 1642321334235,
            "trialTime": 0
        },
        {
            "exptPart": "trial",
            "trialNumber": 94,
            "roleCurrent": "receiver",
            "marblesSampled": 100,
            "probRed": 0.5,
            "lambda": 5,
            "drawnRed": 43,
            "reportedRed": 48,
            "inferredRed": 44,
            "playerTrialScore": -1,
            "oppTrialScore": 1,
            "playerTotalScore": -178,
            "oppTotalScore": -229,
            "waitTime": 5383.536110917014,
            "responseTime": 1642321396521,
            "catchQuestion": "How many <b class=\"r\">red<\/b> marbles did your opponent report drawing? ",
            "catchKey": -1,
            "catchResponse": -1,
            "catchTime": 1642321334235,
            "trialTime": 0
        },
        {
            "exptPart": "trial",
            "trialNumber": 95,
            "roleCurrent": "sender",
            "marblesSampled": 100,
            "probRed": 0.5,
            "lambda": 5,
            "drawnRed": 26,
            "reportedRed": 44,
            "inferredRed": 35,
            "playerTrialScore": 9,
            "oppTrialScore": -9,
            "playerTotalScore": -169,
            "oppTotalScore": -238,
            "waitTime": 2542.736040743886,
            "responseTime": 1642321415870,
            "catchQuestion": "How many <b class=\"r\">red<\/b> marbles did your opponent report drawing? ",
            "catchKey": -1,
            "catchResponse": -1,
            "catchTime": 1642321415870,
            "trialTime": 0
        },
        {
            "exptPart": "trial",
            "trialNumber": 96,
            "roleCurrent": "receiver",
            "marblesSampled": 100,
            "probRed": 0.5,
            "lambda": 5,
            "drawnRed": 43,
            "reportedRed": 47,
            "inferredRed": 47,
            "playerTrialScore": -4,
            "oppTrialScore": 4,
            "playerTotalScore": -173,
            "oppTotalScore": -234,
            "waitTime": 6913.270401875374,
            "responseTime": 1642321430237,
            "catchQuestion": "How many <b class=\"r\">red<\/b> marbles did your opponent report drawing? ",
            "catchKey": -1,
            "catchResponse": -1,
            "catchTime": 1642321415870,
            "trialTime": 0
        },
        {
            "exptPart": "trial",
            "trialNumber": 97,
            "roleCurrent": "sender",
            "marblesSampled": 100,
            "probRed": 0.5,
            "lambda": 5,
            "drawnRed": 93,
            "reportedRed": 93,
            "inferredRed": 83,
            "playerTrialScore": 0,
            "oppTrialScore": -10,
            "playerTotalScore": -173,
            "oppTotalScore": -244,
            "waitTime": 2341.0320915179573,
            "responseTime": 1642321439571,
            "catchQuestion": "How many <b class=\"r\">red<\/b> marbles did your opponent report drawing? ",
            "catchKey": -1,
            "catchResponse": -1,
            "catchTime": 1642321415870,
            "trialTime": 0
        },
        {
            "exptPart": "trial",
            "trialNumber": 98,
            "roleCurrent": "receiver",
            "marblesSampled": 100,
            "probRed": 0.5,
            "lambda": 5,
            "drawnRed": 36,
            "reportedRed": 45,
            "inferredRed": 45,
            "playerTrialScore": -9,
            "oppTrialScore": 9,
            "playerTotalScore": -182,
            "oppTotalScore": -235,
            "waitTime": 6519.888880979256,
            "responseTime": 1642321450320,
            "catchQuestion": "How many <b class=\"r\">red<\/b> marbles did your opponent report drawing? ",
            "catchKey": -1,
            "catchResponse": -1,
            "catchTime": 1642321415870,
            "trialTime": 0
        },
        {
            "exptPart": "trial",
            "trialNumber": 99,
            "roleCurrent": "sender",
            "marblesSampled": 100,
            "probRed": 0.5,
            "lambda": 5,
            "drawnRed": 45,
            "reportedRed": 60,
            "inferredRed": 54,
            "playerTrialScore": 9,
            "oppTrialScore": -9,
            "playerTotalScore": -173,
            "oppTotalScore": -244,
            "waitTime": 2866.242771724661,
            "responseTime": 1642321469656,
            "catchQuestion": "How many <b class=\"r\">red<\/b> marbles did your opponent report drawing? ",
            "catchKey": -1,
            "catchResponse": -1,
            "catchTime": 1642321415870,
            "trialTime": 0
        },
        {
            "exptPart": "trial",
            "trialNumber": 100,
            "roleCurrent": "receiver",
            "marblesSampled": 100,
            "probRed": 0.5,
            "lambda": 5,
            "drawnRed": 21,
            "reportedRed": 28,
            "inferredRed": 28,
            "playerTrialScore": -7,
            "oppTrialScore": 7,
            "playerTotalScore": -180,
            "oppTotalScore": -237,
            "waitTime": 5387.742481972142,
            "responseTime": 1642321480238,
            "catchQuestion": "How many <b class=\"r\">red<\/b> marbles did your opponent report drawing? ",
            "catchKey": -1,
            "catchResponse": -1,
            "catchTime": 1642321480238,
            "trialTime": 0
        }
    ]
}