{
    "client": {
        "type": "sona",
        "experiment_id": 2228,
        "credit_token": "b315147ae43241ea9c65086cb510cfb7",
        "survey_code": "39067",
        "sid": "sona-39067",
        "window": {
            "width": 1280,
            "height": 721
        },
        "screen": {
            "width": 1280,
            "height": 800
        },
        "userAgent": "Mozilla\/5.0 (Macintosh; Intel Mac OS X 10_15_6) AppleWebKit\/537.36 (KHTML, like Gecko) Chrome\/95.0.4638.69 Safari\/537.36",
        "score": 0,
        "bonus": 0
    },
    "expt": {
        "saveURL": "submit.simple.php",
        "trials": 100,
        "practiceTrials": 2,
        "marblesSampled": 100,
        "probRed": 0.5,
        "lambdaAI": 5,
        "roleFirst": "sender",
        "roles": [
            "sender",
            "receiver"
        ],
        "cost": "unif",
        "goal": "over",
        "catchTrials": [
            26,
            80,
            3,
            99,
            28,
            35,
            95,
            67,
            85,
            46
        ],
        "scoreTotal": {
            "player": 592,
            "opp": -1040
        },
        "sona": {
            "experiment_id": 2228,
            "credit_token": "b315147ae43241ea9c65086cb510cfb7"
        },
        "pilot": false,
        "debug": false
    },
    "trials": [
        {
            "exptPart": "practice",
            "trialNumber": 1,
            "roleCurrent": "sender",
            "marblesSampled": 100,
            "probRed": 0.5,
            "lambda": 5,
            "drawnRed": 72,
            "reportedRed": 78,
            "inferredRed": 68,
            "playerTrialScore": 0,
            "oppTrialScore": -4,
            "playerTotalScore": 0,
            "oppTotalScore": -4,
            "waitTime": 3123.488420434959,
            "responseTime": 1642964028533,
            "catchQuestion": "How many <b class=\"r\">red<\/b> marbles did you actually draw (before any changes)? ",
            "catchKey": 72,
            "catchResponse": 72,
            "catchTime": 1642964028533,
            "trialTime": 0
        },
        {
            "exptPart": "practice",
            "trialNumber": 2,
            "roleCurrent": "receiver",
            "marblesSampled": 100,
            "probRed": 0.5,
            "lambda": 5,
            "drawnRed": 58,
            "reportedRed": 62,
            "inferredRed": 60,
            "playerTrialScore": -2,
            "oppTrialScore": 2,
            "playerTotalScore": -2,
            "oppTotalScore": -2,
            "waitTime": 5940.103947538955,
            "responseTime": 1642964079475,
            "catchQuestion": "How many <b class=\"r\">red<\/b> marbles did your opponent report drawing? ",
            "catchKey": 62,
            "catchResponse": 62,
            "catchTime": 1642964079475,
            "trialTime": 0
        },
        {
            "exptPart": "trial",
            "trialNumber": 1,
            "roleCurrent": "sender",
            "marblesSampled": 100,
            "probRed": 0.5,
            "lambda": 5,
            "drawnRed": 25,
            "reportedRed": 59,
            "inferredRed": 56,
            "playerTrialScore": 31,
            "oppTrialScore": -31,
            "playerTotalScore": 31,
            "oppTotalScore": -31,
            "waitTime": 2341.363669238557,
            "responseTime": 1642964166635,
            "catchQuestion": "How many <b class=\"r\">red<\/b> marbles did your opponent report drawing? ",
            "catchKey": -1,
            "catchResponse": -1,
            "catchTime": 1642964079475,
            "trialTime": 0
        },
        {
            "exptPart": "trial",
            "trialNumber": 2,
            "roleCurrent": "receiver",
            "marblesSampled": 100,
            "probRed": 0.5,
            "lambda": 5,
            "drawnRed": 56,
            "reportedRed": 57,
            "inferredRed": 42,
            "playerTrialScore": -14,
            "oppTrialScore": 0,
            "playerTotalScore": 17,
            "oppTotalScore": -31,
            "waitTime": 6181.3384848974965,
            "responseTime": 1642964188483,
            "catchQuestion": "How many <b class=\"r\">red<\/b> marbles did your opponent report drawing? ",
            "catchKey": -1,
            "catchResponse": -1,
            "catchTime": 1642964079475,
            "trialTime": 0
        },
        {
            "exptPart": "trial",
            "trialNumber": 3,
            "roleCurrent": "sender",
            "marblesSampled": 100,
            "probRed": 0.5,
            "lambda": 5,
            "drawnRed": 63,
            "reportedRed": 72,
            "inferredRed": 65,
            "playerTrialScore": 2,
            "oppTrialScore": -2,
            "playerTotalScore": 19,
            "oppTotalScore": -33,
            "waitTime": 2379.0932641678123,
            "responseTime": 1642964218350,
            "catchQuestion": "How many <b class=\"r\">red<\/b> marbles did your opponent report drawing? ",
            "catchKey": -1,
            "catchResponse": -1,
            "catchTime": 1642964079475,
            "trialTime": 0
        },
        {
            "exptPart": "trial",
            "trialNumber": 4,
            "roleCurrent": "receiver",
            "marblesSampled": 100,
            "probRed": 0.5,
            "lambda": 5,
            "drawnRed": 80,
            "reportedRed": 85,
            "inferredRed": 46,
            "playerTrialScore": -34,
            "oppTrialScore": 0,
            "playerTotalScore": -15,
            "oppTotalScore": -33,
            "waitTime": 5994.888730572087,
            "responseTime": 1642964239270,
            "catchQuestion": "How many <b class=\"r\">red<\/b> marbles did your opponent report drawing? ",
            "catchKey": 85,
            "catchResponse": 85,
            "catchTime": 1642964239270,
            "trialTime": 0
        },
        {
            "exptPart": "trial",
            "trialNumber": 5,
            "roleCurrent": "sender",
            "marblesSampled": 100,
            "probRed": 0.5,
            "lambda": 5,
            "drawnRed": 16,
            "reportedRed": 54,
            "inferredRed": 49,
            "playerTrialScore": 33,
            "oppTrialScore": -33,
            "playerTotalScore": 18,
            "oppTotalScore": -66,
            "waitTime": 2529.2274598689,
            "responseTime": 1642964300729,
            "catchQuestion": "How many <b class=\"r\">red<\/b> marbles did your opponent report drawing? ",
            "catchKey": -1,
            "catchResponse": -1,
            "catchTime": 1642964300729,
            "trialTime": 0
        },
        {
            "exptPart": "trial",
            "trialNumber": 6,
            "roleCurrent": "receiver",
            "marblesSampled": 100,
            "probRed": 0.5,
            "lambda": 5,
            "drawnRed": 45,
            "reportedRed": 50,
            "inferredRed": 43,
            "playerTrialScore": -2,
            "oppTrialScore": 0,
            "playerTotalScore": 16,
            "oppTotalScore": -66,
            "waitTime": 7069.369395171043,
            "responseTime": 1642964351580,
            "catchQuestion": "How many <b class=\"r\">red<\/b> marbles did your opponent report drawing? ",
            "catchKey": -1,
            "catchResponse": -1,
            "catchTime": 1642964300729,
            "trialTime": 0
        },
        {
            "exptPart": "trial",
            "trialNumber": 7,
            "roleCurrent": "sender",
            "marblesSampled": 100,
            "probRed": 0.5,
            "lambda": 5,
            "drawnRed": 52,
            "reportedRed": 82,
            "inferredRed": 76,
            "playerTrialScore": 24,
            "oppTrialScore": -24,
            "playerTotalScore": 40,
            "oppTotalScore": -90,
            "waitTime": 3169.423455076424,
            "responseTime": 1642964382570,
            "catchQuestion": "How many <b class=\"r\">red<\/b> marbles did your opponent report drawing? ",
            "catchKey": -1,
            "catchResponse": -1,
            "catchTime": 1642964300729,
            "trialTime": 0
        },
        {
            "exptPart": "trial",
            "trialNumber": 8,
            "roleCurrent": "receiver",
            "marblesSampled": 100,
            "probRed": 0.5,
            "lambda": 5,
            "drawnRed": 43,
            "reportedRed": 48,
            "inferredRed": 34,
            "playerTrialScore": -9,
            "oppTrialScore": 0,
            "playerTotalScore": 31,
            "oppTotalScore": -90,
            "waitTime": 5272.795661004631,
            "responseTime": 1642964404968,
            "catchQuestion": "How many <b class=\"r\">red<\/b> marbles did your opponent report drawing? ",
            "catchKey": -1,
            "catchResponse": -1,
            "catchTime": 1642964300729,
            "trialTime": 0
        },
        {
            "exptPart": "trial",
            "trialNumber": 9,
            "roleCurrent": "sender",
            "marblesSampled": 100,
            "probRed": 0.5,
            "lambda": 5,
            "drawnRed": 18,
            "reportedRed": 50,
            "inferredRed": 46,
            "playerTrialScore": 28,
            "oppTrialScore": -28,
            "playerTotalScore": 59,
            "oppTotalScore": -118,
            "waitTime": 2105.968213363292,
            "responseTime": 1642964446116,
            "catchQuestion": "How many <b class=\"r\">red<\/b> marbles did your opponent report drawing? ",
            "catchKey": -1,
            "catchResponse": -1,
            "catchTime": 1642964300729,
            "trialTime": 0
        },
        {
            "exptPart": "trial",
            "trialNumber": 10,
            "roleCurrent": "receiver",
            "marblesSampled": 100,
            "probRed": 0.5,
            "lambda": 5,
            "drawnRed": 33,
            "reportedRed": 38,
            "inferredRed": 36,
            "playerTrialScore": -3,
            "oppTrialScore": 3,
            "playerTotalScore": 56,
            "oppTotalScore": -115,
            "waitTime": 6983.20839158393,
            "responseTime": 1642964459554,
            "catchQuestion": "How many <b class=\"r\">red<\/b> marbles did your opponent report drawing? ",
            "catchKey": -1,
            "catchResponse": -1,
            "catchTime": 1642964459554,
            "trialTime": 0
        },
        {
            "exptPart": "trial",
            "trialNumber": 11,
            "roleCurrent": "sender",
            "marblesSampled": 100,
            "probRed": 0.5,
            "lambda": 5,
            "drawnRed": 81,
            "reportedRed": 84,
            "inferredRed": 81,
            "playerTrialScore": 0,
            "oppTrialScore": 0,
            "playerTotalScore": 56,
            "oppTotalScore": -115,
            "waitTime": 2993.8365553999056,
            "responseTime": 1642964491343,
            "catchQuestion": "How many <b class=\"r\">red<\/b> marbles did your opponent report drawing? ",
            "catchKey": -1,
            "catchResponse": -1,
            "catchTime": 1642964459554,
            "trialTime": 0
        },
        {
            "exptPart": "trial",
            "trialNumber": 12,
            "roleCurrent": "receiver",
            "marblesSampled": 100,
            "probRed": 0.5,
            "lambda": 5,
            "drawnRed": 20,
            "reportedRed": 23,
            "inferredRed": 23,
            "playerTrialScore": -3,
            "oppTrialScore": 3,
            "playerTotalScore": 53,
            "oppTotalScore": -112,
            "waitTime": 6581.020270398811,
            "responseTime": 1642964509128,
            "catchQuestion": "How many <b class=\"r\">red<\/b> marbles did your opponent report drawing? ",
            "catchKey": -1,
            "catchResponse": -1,
            "catchTime": 1642964459554,
            "trialTime": 0
        },
        {
            "exptPart": "trial",
            "trialNumber": 13,
            "roleCurrent": "sender",
            "marblesSampled": 100,
            "probRed": 0.5,
            "lambda": 5,
            "drawnRed": 20,
            "reportedRed": 62,
            "inferredRed": 51,
            "playerTrialScore": 31,
            "oppTrialScore": -31,
            "playerTotalScore": 84,
            "oppTotalScore": -143,
            "waitTime": 2223.519980763414,
            "responseTime": 1642964562260,
            "catchQuestion": "How many <b class=\"r\">red<\/b> marbles did your opponent report drawing? ",
            "catchKey": -1,
            "catchResponse": -1,
            "catchTime": 1642964459554,
            "trialTime": 0
        },
        {
            "exptPart": "trial",
            "trialNumber": 14,
            "roleCurrent": "receiver",
            "marblesSampled": 100,
            "probRed": 0.5,
            "lambda": 5,
            "drawnRed": 31,
            "reportedRed": 39,
            "inferredRed": 24,
            "playerTrialScore": -7,
            "oppTrialScore": 0,
            "playerTotalScore": 77,
            "oppTotalScore": -143,
            "waitTime": 6209.964423434932,
            "responseTime": 1642964605226,
            "catchQuestion": "How many <b class=\"r\">red<\/b> marbles did your opponent report drawing? ",
            "catchKey": -1,
            "catchResponse": -1,
            "catchTime": 1642964459554,
            "trialTime": 0
        },
        {
            "exptPart": "trial",
            "trialNumber": 15,
            "roleCurrent": "sender",
            "marblesSampled": 100,
            "probRed": 0.5,
            "lambda": 5,
            "drawnRed": 66,
            "reportedRed": 73,
            "inferredRed": 71,
            "playerTrialScore": 5,
            "oppTrialScore": -5,
            "playerTotalScore": 82,
            "oppTotalScore": -148,
            "waitTime": 3139.523482938161,
            "responseTime": 1642964621353,
            "catchQuestion": "How many <b class=\"r\">red<\/b> marbles did your opponent report drawing? ",
            "catchKey": -1,
            "catchResponse": -1,
            "catchTime": 1642964621353,
            "trialTime": 0
        },
        {
            "exptPart": "trial",
            "trialNumber": 16,
            "roleCurrent": "receiver",
            "marblesSampled": 100,
            "probRed": 0.5,
            "lambda": 5,
            "drawnRed": 24,
            "reportedRed": 28,
            "inferredRed": 25,
            "playerTrialScore": -1,
            "oppTrialScore": 1,
            "playerTotalScore": 81,
            "oppTotalScore": -147,
            "waitTime": 5431.2992242962755,
            "responseTime": 1642964649511,
            "catchQuestion": "How many <b class=\"r\">red<\/b> marbles did your opponent report drawing? ",
            "catchKey": -1,
            "catchResponse": -1,
            "catchTime": 1642964621353,
            "trialTime": 0
        },
        {
            "exptPart": "trial",
            "trialNumber": 17,
            "roleCurrent": "sender",
            "marblesSampled": 100,
            "probRed": 0.5,
            "lambda": 5,
            "drawnRed": 54,
            "reportedRed": 67,
            "inferredRed": 62,
            "playerTrialScore": 8,
            "oppTrialScore": -8,
            "playerTotalScore": 89,
            "oppTotalScore": -155,
            "waitTime": 2187.3312086147243,
            "responseTime": 1642964667461,
            "catchQuestion": "How many <b class=\"r\">red<\/b> marbles did your opponent report drawing? ",
            "catchKey": -1,
            "catchResponse": -1,
            "catchTime": 1642964621353,
            "trialTime": 0
        },
        {
            "exptPart": "trial",
            "trialNumber": 18,
            "roleCurrent": "receiver",
            "marblesSampled": 100,
            "probRed": 0.5,
            "lambda": 5,
            "drawnRed": 41,
            "reportedRed": 43,
            "inferredRed": 36,
            "playerTrialScore": -5,
            "oppTrialScore": 0,
            "playerTotalScore": 84,
            "oppTotalScore": -155,
            "waitTime": 7247.906710334113,
            "responseTime": 1642964681316,
            "catchQuestion": "How many <b class=\"r\">red<\/b> marbles did your opponent report drawing? ",
            "catchKey": -1,
            "catchResponse": -1,
            "catchTime": 1642964621353,
            "trialTime": 0
        },
        {
            "exptPart": "trial",
            "trialNumber": 19,
            "roleCurrent": "sender",
            "marblesSampled": 100,
            "probRed": 0.5,
            "lambda": 5,
            "drawnRed": 29,
            "reportedRed": 39,
            "inferredRed": 36,
            "playerTrialScore": 7,
            "oppTrialScore": -7,
            "playerTotalScore": 91,
            "oppTotalScore": -162,
            "waitTime": 2460.3462435692463,
            "responseTime": 1642964698728,
            "catchQuestion": "How many <b class=\"r\">red<\/b> marbles did your opponent report drawing? ",
            "catchKey": -1,
            "catchResponse": -1,
            "catchTime": 1642964621353,
            "trialTime": 0
        },
        {
            "exptPart": "trial",
            "trialNumber": 20,
            "roleCurrent": "receiver",
            "marblesSampled": 100,
            "probRed": 0.5,
            "lambda": 5,
            "drawnRed": 22,
            "reportedRed": 27,
            "inferredRed": 18,
            "playerTrialScore": -4,
            "oppTrialScore": 0,
            "playerTotalScore": 87,
            "oppTotalScore": -162,
            "waitTime": 5426.090292357088,
            "responseTime": 1642964709889,
            "catchQuestion": "How many <b class=\"r\">red<\/b> marbles did your opponent report drawing? ",
            "catchKey": -1,
            "catchResponse": -1,
            "catchTime": 1642964709889,
            "trialTime": 0
        },
        {
            "exptPart": "trial",
            "trialNumber": 21,
            "roleCurrent": "sender",
            "marblesSampled": 100,
            "probRed": 0.5,
            "lambda": 5,
            "drawnRed": 28,
            "reportedRed": 54,
            "inferredRed": 50,
            "playerTrialScore": 22,
            "oppTrialScore": -22,
            "playerTotalScore": 109,
            "oppTotalScore": -184,
            "waitTime": 2360.4390510264134,
            "responseTime": 1642964747522,
            "catchQuestion": "How many <b class=\"r\">red<\/b> marbles did your opponent report drawing? ",
            "catchKey": -1,
            "catchResponse": -1,
            "catchTime": 1642964709889,
            "trialTime": 0
        },
        {
            "exptPart": "trial",
            "trialNumber": 22,
            "roleCurrent": "receiver",
            "marblesSampled": 100,
            "probRed": 0.5,
            "lambda": 5,
            "drawnRed": 52,
            "reportedRed": 54,
            "inferredRed": 28,
            "playerTrialScore": -24,
            "oppTrialScore": 0,
            "playerTotalScore": 85,
            "oppTotalScore": -184,
            "waitTime": 6640.740903149496,
            "responseTime": 1642964766239,
            "catchQuestion": "How many <b class=\"r\">red<\/b> marbles did your opponent report drawing? ",
            "catchKey": -1,
            "catchResponse": -1,
            "catchTime": 1642964709889,
            "trialTime": 0
        },
        {
            "exptPart": "trial",
            "trialNumber": 23,
            "roleCurrent": "sender",
            "marblesSampled": 100,
            "probRed": 0.5,
            "lambda": 5,
            "drawnRed": 42,
            "reportedRed": 47,
            "inferredRed": 41,
            "playerTrialScore": 0,
            "oppTrialScore": -1,
            "playerTotalScore": 85,
            "oppTotalScore": -185,
            "waitTime": 3009.570977549847,
            "responseTime": 1642964785357,
            "catchQuestion": "How many <b class=\"r\">red<\/b> marbles did your opponent report drawing? ",
            "catchKey": -1,
            "catchResponse": -1,
            "catchTime": 1642964709889,
            "trialTime": 0
        },
        {
            "exptPart": "trial",
            "trialNumber": 24,
            "roleCurrent": "receiver",
            "marblesSampled": 100,
            "probRed": 0.5,
            "lambda": 5,
            "drawnRed": 8,
            "reportedRed": 15,
            "inferredRed": 15,
            "playerTrialScore": -7,
            "oppTrialScore": 7,
            "playerTotalScore": 78,
            "oppTotalScore": -178,
            "waitTime": 6344.321503083205,
            "responseTime": 1642964797940,
            "catchQuestion": "How many <b class=\"r\">red<\/b> marbles did your opponent report drawing? ",
            "catchKey": -1,
            "catchResponse": -1,
            "catchTime": 1642964709889,
            "trialTime": 0
        },
        {
            "exptPart": "trial",
            "trialNumber": 25,
            "roleCurrent": "sender",
            "marblesSampled": 100,
            "probRed": 0.5,
            "lambda": 5,
            "drawnRed": 60,
            "reportedRed": 60,
            "inferredRed": 54,
            "playerTrialScore": 0,
            "oppTrialScore": -6,
            "playerTotalScore": 78,
            "oppTotalScore": -184,
            "waitTime": 3090.98832128466,
            "responseTime": 1642964809031,
            "catchQuestion": "How many <b class=\"r\">red<\/b> marbles did your opponent report drawing? ",
            "catchKey": -1,
            "catchResponse": -1,
            "catchTime": 1642964809031,
            "trialTime": 0
        },
        {
            "exptPart": "trial",
            "trialNumber": 26,
            "roleCurrent": "receiver",
            "marblesSampled": 100,
            "probRed": 0.5,
            "lambda": 5,
            "drawnRed": 74,
            "reportedRed": 79,
            "inferredRed": 55,
            "playerTrialScore": -19,
            "oppTrialScore": 0,
            "playerTotalScore": 59,
            "oppTotalScore": -184,
            "waitTime": 5453.522735257668,
            "responseTime": 1642964846335,
            "catchQuestion": "How many <b class=\"r\">red<\/b> marbles did your opponent report drawing? ",
            "catchKey": -1,
            "catchResponse": -1,
            "catchTime": 1642964809031,
            "trialTime": 0
        },
        {
            "exptPart": "trial",
            "trialNumber": 27,
            "roleCurrent": "sender",
            "marblesSampled": 100,
            "probRed": 0.5,
            "lambda": 5,
            "drawnRed": 43,
            "reportedRed": 82,
            "inferredRed": 73,
            "playerTrialScore": 30,
            "oppTrialScore": -30,
            "playerTotalScore": 89,
            "oppTotalScore": -214,
            "waitTime": 2360.6439823615165,
            "responseTime": 1642964884370,
            "catchQuestion": "How many <b class=\"r\">red<\/b> marbles did you actually draw (before any changes)? ",
            "catchKey": 43,
            "catchResponse": 43,
            "catchTime": 1642964884370,
            "trialTime": 0
        },
        {
            "exptPart": "trial",
            "trialNumber": 28,
            "roleCurrent": "receiver",
            "marblesSampled": 100,
            "probRed": 0.5,
            "lambda": 5,
            "drawnRed": 52,
            "reportedRed": 56,
            "inferredRed": 38,
            "playerTrialScore": -14,
            "oppTrialScore": 0,
            "playerTotalScore": 75,
            "oppTotalScore": -214,
            "waitTime": 6976.003729838623,
            "responseTime": 1642964906593,
            "catchQuestion": "How many <b class=\"r\">red<\/b> marbles did you actually draw (before any changes)? ",
            "catchKey": -1,
            "catchResponse": -1,
            "catchTime": 1642964884370,
            "trialTime": 0
        },
        {
            "exptPart": "trial",
            "trialNumber": 29,
            "roleCurrent": "sender",
            "marblesSampled": 100,
            "probRed": 0.5,
            "lambda": 5,
            "drawnRed": 10,
            "reportedRed": 74,
            "inferredRed": 67,
            "playerTrialScore": 57,
            "oppTrialScore": -57,
            "playerTotalScore": 132,
            "oppTotalScore": -271,
            "waitTime": 2787.3901185190584,
            "responseTime": 1642964960736,
            "catchQuestion": "How many <b class=\"r\">red<\/b> marbles did you actually draw (before any changes)? ",
            "catchKey": 10,
            "catchResponse": 10,
            "catchTime": 1642964960736,
            "trialTime": 0
        },
        {
            "exptPart": "trial",
            "trialNumber": 30,
            "roleCurrent": "receiver",
            "marblesSampled": 100,
            "probRed": 0.5,
            "lambda": 5,
            "drawnRed": 40,
            "reportedRed": 43,
            "inferredRed": 29,
            "playerTrialScore": -11,
            "oppTrialScore": 0,
            "playerTotalScore": 121,
            "oppTotalScore": -271,
            "waitTime": 5520.062587152643,
            "responseTime": 1642964985619,
            "catchQuestion": "How many <b class=\"r\">red<\/b> marbles did you actually draw (before any changes)? ",
            "catchKey": -1,
            "catchResponse": -1,
            "catchTime": 1642964985619,
            "trialTime": 0
        },
        {
            "exptPart": "trial",
            "trialNumber": 31,
            "roleCurrent": "sender",
            "marblesSampled": 100,
            "probRed": 0.5,
            "lambda": 5,
            "drawnRed": 62,
            "reportedRed": 72,
            "inferredRed": 64,
            "playerTrialScore": 2,
            "oppTrialScore": -2,
            "playerTotalScore": 123,
            "oppTotalScore": -273,
            "waitTime": 2973.7173492617585,
            "responseTime": 1642965014168,
            "catchQuestion": "How many <b class=\"r\">red<\/b> marbles did you actually draw (before any changes)? ",
            "catchKey": -1,
            "catchResponse": -1,
            "catchTime": 1642964985619,
            "trialTime": 0
        },
        {
            "exptPart": "trial",
            "trialNumber": 32,
            "roleCurrent": "receiver",
            "marblesSampled": 100,
            "probRed": 0.5,
            "lambda": 5,
            "drawnRed": 50,
            "reportedRed": 55,
            "inferredRed": 49,
            "playerTrialScore": -1,
            "oppTrialScore": 0,
            "playerTotalScore": 122,
            "oppTotalScore": -273,
            "waitTime": 6238.498966899895,
            "responseTime": 1642965034289,
            "catchQuestion": "How many <b class=\"r\">red<\/b> marbles did you actually draw (before any changes)? ",
            "catchKey": -1,
            "catchResponse": -1,
            "catchTime": 1642964985619,
            "trialTime": 0
        },
        {
            "exptPart": "trial",
            "trialNumber": 33,
            "roleCurrent": "sender",
            "marblesSampled": 100,
            "probRed": 0.5,
            "lambda": 5,
            "drawnRed": 79,
            "reportedRed": 83,
            "inferredRed": 78,
            "playerTrialScore": 0,
            "oppTrialScore": -1,
            "playerTotalScore": 122,
            "oppTotalScore": -274,
            "waitTime": 2183.1140732906133,
            "responseTime": 1642965046693,
            "catchQuestion": "How many <b class=\"r\">red<\/b> marbles did you actually draw (before any changes)? ",
            "catchKey": -1,
            "catchResponse": -1,
            "catchTime": 1642964985619,
            "trialTime": 0
        },
        {
            "exptPart": "trial",
            "trialNumber": 34,
            "roleCurrent": "receiver",
            "marblesSampled": 100,
            "probRed": 0.5,
            "lambda": 5,
            "drawnRed": 51,
            "reportedRed": 58,
            "inferredRed": 29,
            "playerTrialScore": -22,
            "oppTrialScore": 0,
            "playerTotalScore": 100,
            "oppTotalScore": -274,
            "waitTime": 5755.050194373879,
            "responseTime": 1642965064176,
            "catchQuestion": "How many <b class=\"r\">red<\/b> marbles did you actually draw (before any changes)? ",
            "catchKey": -1,
            "catchResponse": -1,
            "catchTime": 1642964985619,
            "trialTime": 0
        },
        {
            "exptPart": "trial",
            "trialNumber": 35,
            "roleCurrent": "sender",
            "marblesSampled": 100,
            "probRed": 0.5,
            "lambda": 5,
            "drawnRed": 56,
            "reportedRed": 69,
            "inferredRed": 63,
            "playerTrialScore": 7,
            "oppTrialScore": -7,
            "playerTotalScore": 107,
            "oppTotalScore": -281,
            "waitTime": 2243.331999368461,
            "responseTime": 1642965107870,
            "catchQuestion": "How many <b class=\"r\">red<\/b> marbles did you actually draw (before any changes)? ",
            "catchKey": -1,
            "catchResponse": -1,
            "catchTime": 1642965107870,
            "trialTime": 0
        },
        {
            "exptPart": "trial",
            "trialNumber": 36,
            "roleCurrent": "receiver",
            "marblesSampled": 100,
            "probRed": 0.5,
            "lambda": 5,
            "drawnRed": 35,
            "reportedRed": 44,
            "inferredRed": 34,
            "playerTrialScore": -1,
            "oppTrialScore": 0,
            "playerTotalScore": 106,
            "oppTotalScore": -281,
            "waitTime": 7325.946688349984,
            "responseTime": 1642965133484,
            "catchQuestion": "How many <b class=\"r\">red<\/b> marbles did your opponent report drawing? ",
            "catchKey": 44,
            "catchResponse": 44,
            "catchTime": 1642965133484,
            "trialTime": 0
        },
        {
            "exptPart": "trial",
            "trialNumber": 37,
            "roleCurrent": "sender",
            "marblesSampled": 100,
            "probRed": 0.5,
            "lambda": 5,
            "drawnRed": 27,
            "reportedRed": 43,
            "inferredRed": 37,
            "playerTrialScore": 10,
            "oppTrialScore": -10,
            "playerTotalScore": 116,
            "oppTotalScore": -291,
            "waitTime": 2803.1990826061356,
            "responseTime": 1642965158024,
            "catchQuestion": "How many <b class=\"r\">red<\/b> marbles did your opponent report drawing? ",
            "catchKey": -1,
            "catchResponse": -1,
            "catchTime": 1642965133484,
            "trialTime": 0
        },
        {
            "exptPart": "trial",
            "trialNumber": 38,
            "roleCurrent": "receiver",
            "marblesSampled": 100,
            "probRed": 0.5,
            "lambda": 5,
            "drawnRed": 61,
            "reportedRed": 66,
            "inferredRed": 34,
            "playerTrialScore": -27,
            "oppTrialScore": 0,
            "playerTotalScore": 89,
            "oppTotalScore": -291,
            "waitTime": 5616.283802585864,
            "responseTime": 1642965170597,
            "catchQuestion": "How many <b class=\"r\">red<\/b> marbles did your opponent report drawing? ",
            "catchKey": -1,
            "catchResponse": -1,
            "catchTime": 1642965133484,
            "trialTime": 0
        },
        {
            "exptPart": "trial",
            "trialNumber": 39,
            "roleCurrent": "sender",
            "marblesSampled": 100,
            "probRed": 0.5,
            "lambda": 5,
            "drawnRed": 52,
            "reportedRed": 68,
            "inferredRed": 65,
            "playerTrialScore": 13,
            "oppTrialScore": -13,
            "playerTotalScore": 102,
            "oppTotalScore": -304,
            "waitTime": 2509.56384488557,
            "responseTime": 1642965195754,
            "catchQuestion": "How many <b class=\"r\">red<\/b> marbles did your opponent report drawing? ",
            "catchKey": -1,
            "catchResponse": -1,
            "catchTime": 1642965133484,
            "trialTime": 0
        },
        {
            "exptPart": "trial",
            "trialNumber": 40,
            "roleCurrent": "receiver",
            "marblesSampled": 100,
            "probRed": 0.5,
            "lambda": 5,
            "drawnRed": 34,
            "reportedRed": 36,
            "inferredRed": 23,
            "playerTrialScore": -11,
            "oppTrialScore": 0,
            "playerTotalScore": 91,
            "oppTotalScore": -304,
            "waitTime": 7060.304931053715,
            "responseTime": 1642965212135,
            "catchQuestion": "How many <b class=\"r\">red<\/b> marbles did your opponent report drawing? ",
            "catchKey": -1,
            "catchResponse": -1,
            "catchTime": 1642965212135,
            "trialTime": 0
        },
        {
            "exptPart": "trial",
            "trialNumber": 41,
            "roleCurrent": "sender",
            "marblesSampled": 100,
            "probRed": 0.5,
            "lambda": 5,
            "drawnRed": 23,
            "reportedRed": 88,
            "inferredRed": 86,
            "playerTrialScore": 63,
            "oppTrialScore": -63,
            "playerTotalScore": 154,
            "oppTotalScore": -367,
            "waitTime": 2733.751339544333,
            "responseTime": 1642965285209,
            "catchQuestion": "How many <b class=\"r\">red<\/b> marbles did your opponent report drawing? ",
            "catchKey": -1,
            "catchResponse": -1,
            "catchTime": 1642965212135,
            "trialTime": 0
        },
        {
            "exptPart": "trial",
            "trialNumber": 42,
            "roleCurrent": "receiver",
            "marblesSampled": 100,
            "probRed": 0.5,
            "lambda": 5,
            "drawnRed": 34,
            "reportedRed": 38,
            "inferredRed": 33,
            "playerTrialScore": -1,
            "oppTrialScore": 0,
            "playerTotalScore": 153,
            "oppTotalScore": -367,
            "waitTime": 7150.082108445922,
            "responseTime": 1642965303214,
            "catchQuestion": "How many <b class=\"r\">red<\/b> marbles did your opponent report drawing? ",
            "catchKey": -1,
            "catchResponse": -1,
            "catchTime": 1642965212135,
            "trialTime": 0
        },
        {
            "exptPart": "trial",
            "trialNumber": 43,
            "roleCurrent": "sender",
            "marblesSampled": 100,
            "probRed": 0.5,
            "lambda": 5,
            "drawnRed": 61,
            "reportedRed": 63,
            "inferredRed": 60,
            "playerTrialScore": 0,
            "oppTrialScore": -1,
            "playerTotalScore": 153,
            "oppTotalScore": -368,
            "waitTime": 2883.8013661152736,
            "responseTime": 1642965315263,
            "catchQuestion": "How many <b class=\"r\">red<\/b> marbles did your opponent report drawing? ",
            "catchKey": -1,
            "catchResponse": -1,
            "catchTime": 1642965212135,
            "trialTime": 0
        },
        {
            "exptPart": "trial",
            "trialNumber": 44,
            "roleCurrent": "receiver",
            "marblesSampled": 100,
            "probRed": 0.5,
            "lambda": 5,
            "drawnRed": 45,
            "reportedRed": 49,
            "inferredRed": 26,
            "playerTrialScore": -19,
            "oppTrialScore": 0,
            "playerTotalScore": 134,
            "oppTotalScore": -368,
            "waitTime": 5644.023633388251,
            "responseTime": 1642965335343,
            "catchQuestion": "How many <b class=\"r\">red<\/b> marbles did your opponent report drawing? ",
            "catchKey": -1,
            "catchResponse": -1,
            "catchTime": 1642965212135,
            "trialTime": 0
        },
        {
            "exptPart": "trial",
            "trialNumber": 45,
            "roleCurrent": "sender",
            "marblesSampled": 100,
            "probRed": 0.5,
            "lambda": 5,
            "drawnRed": 79,
            "reportedRed": 81,
            "inferredRed": 76,
            "playerTrialScore": 0,
            "oppTrialScore": -3,
            "playerTotalScore": 134,
            "oppTotalScore": -371,
            "waitTime": 2583.718714366846,
            "responseTime": 1642965347851,
            "catchQuestion": "How many <b class=\"r\">red<\/b> marbles did your opponent report drawing? ",
            "catchKey": -1,
            "catchResponse": -1,
            "catchTime": 1642965347851,
            "trialTime": 0
        },
        {
            "exptPart": "trial",
            "trialNumber": 46,
            "roleCurrent": "receiver",
            "marblesSampled": 100,
            "probRed": 0.5,
            "lambda": 5,
            "drawnRed": 62,
            "reportedRed": 68,
            "inferredRed": 49,
            "playerTrialScore": -13,
            "oppTrialScore": 0,
            "playerTotalScore": 121,
            "oppTotalScore": -371,
            "waitTime": 6954.676619970078,
            "responseTime": 1642965369387,
            "catchQuestion": "How many <b class=\"r\">red<\/b> marbles did your opponent report drawing? ",
            "catchKey": -1,
            "catchResponse": -1,
            "catchTime": 1642965347851,
            "trialTime": 0
        },
        {
            "exptPart": "trial",
            "trialNumber": 47,
            "roleCurrent": "sender",
            "marblesSampled": 100,
            "probRed": 0.5,
            "lambda": 5,
            "drawnRed": 96,
            "reportedRed": 98,
            "inferredRed": 91,
            "playerTrialScore": 0,
            "oppTrialScore": -5,
            "playerTotalScore": 121,
            "oppTotalScore": -376,
            "waitTime": 2409.2936452848526,
            "responseTime": 1642965425713,
            "catchQuestion": "How many <b class=\"r\">red<\/b> marbles did you actually draw (before any changes)? ",
            "catchKey": 96,
            "catchResponse": 96,
            "catchTime": 1642965425713,
            "trialTime": 0
        },
        {
            "exptPart": "trial",
            "trialNumber": 48,
            "roleCurrent": "receiver",
            "marblesSampled": 100,
            "probRed": 0.5,
            "lambda": 5,
            "drawnRed": 45,
            "reportedRed": 49,
            "inferredRed": 27,
            "playerTrialScore": -18,
            "oppTrialScore": 0,
            "playerTotalScore": 103,
            "oppTotalScore": -376,
            "waitTime": 5797.391615379229,
            "responseTime": 1642965452358,
            "catchQuestion": "How many <b class=\"r\">red<\/b> marbles did you actually draw (before any changes)? ",
            "catchKey": -1,
            "catchResponse": -1,
            "catchTime": 1642965425713,
            "trialTime": 0
        },
        {
            "exptPart": "trial",
            "trialNumber": 49,
            "roleCurrent": "sender",
            "marblesSampled": 100,
            "probRed": 0.5,
            "lambda": 5,
            "drawnRed": 25,
            "reportedRed": 72,
            "inferredRed": 69,
            "playerTrialScore": 44,
            "oppTrialScore": -44,
            "playerTotalScore": 147,
            "oppTotalScore": -420,
            "waitTime": 2189.021523045597,
            "responseTime": 1642965493579,
            "catchQuestion": "How many <b class=\"r\">red<\/b> marbles did you actually draw (before any changes)? ",
            "catchKey": -1,
            "catchResponse": -1,
            "catchTime": 1642965425713,
            "trialTime": 0
        },
        {
            "exptPart": "trial",
            "trialNumber": 50,
            "roleCurrent": "receiver",
            "marblesSampled": 100,
            "probRed": 0.5,
            "lambda": 5,
            "drawnRed": 22,
            "reportedRed": 26,
            "inferredRed": 18,
            "playerTrialScore": -4,
            "oppTrialScore": 0,
            "playerTotalScore": 143,
            "oppTotalScore": -420,
            "waitTime": 5213.606115119832,
            "responseTime": 1642965505001,
            "catchQuestion": "How many <b class=\"r\">red<\/b> marbles did you actually draw (before any changes)? ",
            "catchKey": -1,
            "catchResponse": -1,
            "catchTime": 1642965505001,
            "trialTime": 0
        },
        {
            "exptPart": "trial",
            "trialNumber": 51,
            "roleCurrent": "sender",
            "marblesSampled": 100,
            "probRed": 0.5,
            "lambda": 5,
            "drawnRed": 63,
            "reportedRed": 69,
            "inferredRed": 65,
            "playerTrialScore": 2,
            "oppTrialScore": -2,
            "playerTotalScore": 145,
            "oppTotalScore": -422,
            "waitTime": 2694.5777913843285,
            "responseTime": 1642965532894,
            "catchQuestion": "How many <b class=\"r\">red<\/b> marbles did you actually draw (before any changes)? ",
            "catchKey": -1,
            "catchResponse": -1,
            "catchTime": 1642965505001,
            "trialTime": 0
        },
        {
            "exptPart": "trial",
            "trialNumber": 52,
            "roleCurrent": "receiver",
            "marblesSampled": 100,
            "probRed": 0.5,
            "lambda": 5,
            "drawnRed": 75,
            "reportedRed": 79,
            "inferredRed": 64,
            "playerTrialScore": -11,
            "oppTrialScore": 0,
            "playerTotalScore": 134,
            "oppTotalScore": -422,
            "waitTime": 7186.195402347884,
            "responseTime": 1642965550046,
            "catchQuestion": "How many <b class=\"r\">red<\/b> marbles did you actually draw (before any changes)? ",
            "catchKey": -1,
            "catchResponse": -1,
            "catchTime": 1642965505001,
            "trialTime": 0
        },
        {
            "exptPart": "trial",
            "trialNumber": 53,
            "roleCurrent": "sender",
            "marblesSampled": 100,
            "probRed": 0.5,
            "lambda": 5,
            "drawnRed": 47,
            "reportedRed": 56,
            "inferredRed": 50,
            "playerTrialScore": 3,
            "oppTrialScore": -3,
            "playerTotalScore": 137,
            "oppTotalScore": -425,
            "waitTime": 3080.745996233594,
            "responseTime": 1642965572499,
            "catchQuestion": "How many <b class=\"r\">red<\/b> marbles did you actually draw (before any changes)? ",
            "catchKey": -1,
            "catchResponse": -1,
            "catchTime": 1642965505001,
            "trialTime": 0
        },
        {
            "exptPart": "trial",
            "trialNumber": 54,
            "roleCurrent": "receiver",
            "marblesSampled": 100,
            "probRed": 0.5,
            "lambda": 5,
            "drawnRed": 66,
            "reportedRed": 71,
            "inferredRed": 53,
            "playerTrialScore": -13,
            "oppTrialScore": 0,
            "playerTotalScore": 124,
            "oppTotalScore": -425,
            "waitTime": 6340.528889580024,
            "responseTime": 1642965588594,
            "catchQuestion": "How many <b class=\"r\">red<\/b> marbles did you actually draw (before any changes)? ",
            "catchKey": -1,
            "catchResponse": -1,
            "catchTime": 1642965505001,
            "trialTime": 0
        },
        {
            "exptPart": "trial",
            "trialNumber": 55,
            "roleCurrent": "sender",
            "marblesSampled": 100,
            "probRed": 0.5,
            "lambda": 5,
            "drawnRed": 55,
            "reportedRed": 77,
            "inferredRed": 71,
            "playerTrialScore": 16,
            "oppTrialScore": -16,
            "playerTotalScore": 140,
            "oppTotalScore": -441,
            "waitTime": 2737.2697792461095,
            "responseTime": 1642965612806,
            "catchQuestion": "How many <b class=\"r\">red<\/b> marbles did you actually draw (before any changes)? ",
            "catchKey": -1,
            "catchResponse": -1,
            "catchTime": 1642965612806,
            "trialTime": 0
        },
        {
            "exptPart": "trial",
            "trialNumber": 56,
            "roleCurrent": "receiver",
            "marblesSampled": 100,
            "probRed": 0.5,
            "lambda": 5,
            "drawnRed": 17,
            "reportedRed": 23,
            "inferredRed": 23,
            "playerTrialScore": -6,
            "oppTrialScore": 6,
            "playerTotalScore": 134,
            "oppTotalScore": -435,
            "waitTime": 6832.114961552661,
            "responseTime": 1642965627550,
            "catchQuestion": "How many <b class=\"r\">red<\/b> marbles did you actually draw (before any changes)? ",
            "catchKey": -1,
            "catchResponse": -1,
            "catchTime": 1642965612806,
            "trialTime": 0
        },
        {
            "exptPart": "trial",
            "trialNumber": 57,
            "roleCurrent": "sender",
            "marblesSampled": 100,
            "probRed": 0.5,
            "lambda": 5,
            "drawnRed": 66,
            "reportedRed": 68,
            "inferredRed": 62,
            "playerTrialScore": 0,
            "oppTrialScore": -4,
            "playerTotalScore": 134,
            "oppTotalScore": -439,
            "waitTime": 2831.631964199003,
            "responseTime": 1642965640027,
            "catchQuestion": "How many <b class=\"r\">red<\/b> marbles did you actually draw (before any changes)? ",
            "catchKey": -1,
            "catchResponse": -1,
            "catchTime": 1642965612806,
            "trialTime": 0
        },
        {
            "exptPart": "trial",
            "trialNumber": 58,
            "roleCurrent": "receiver",
            "marblesSampled": 100,
            "probRed": 0.5,
            "lambda": 5,
            "drawnRed": 80,
            "reportedRed": 85,
            "inferredRed": 36,
            "playerTrialScore": -44,
            "oppTrialScore": 0,
            "playerTotalScore": 90,
            "oppTotalScore": -439,
            "waitTime": 6073.0574002060675,
            "responseTime": 1642965657229,
            "catchQuestion": "How many <b class=\"r\">red<\/b> marbles did you actually draw (before any changes)? ",
            "catchKey": -1,
            "catchResponse": -1,
            "catchTime": 1642965612806,
            "trialTime": 0
        },
        {
            "exptPart": "trial",
            "trialNumber": 59,
            "roleCurrent": "sender",
            "marblesSampled": 100,
            "probRed": 0.5,
            "lambda": 5,
            "drawnRed": 47,
            "reportedRed": 81,
            "inferredRed": 73,
            "playerTrialScore": 26,
            "oppTrialScore": -26,
            "playerTotalScore": 116,
            "oppTotalScore": -465,
            "waitTime": 2111.7810361511747,
            "responseTime": 1642965693581,
            "catchQuestion": "How many <b class=\"r\">red<\/b> marbles did you actually draw (before any changes)? ",
            "catchKey": -1,
            "catchResponse": -1,
            "catchTime": 1642965612806,
            "trialTime": 0
        },
        {
            "exptPart": "trial",
            "trialNumber": 60,
            "roleCurrent": "receiver",
            "marblesSampled": 100,
            "probRed": 0.5,
            "lambda": 5,
            "drawnRed": 32,
            "reportedRed": 35,
            "inferredRed": 33,
            "playerTrialScore": -1,
            "oppTrialScore": 1,
            "playerTotalScore": 115,
            "oppTotalScore": -464,
            "waitTime": 5224.977189097193,
            "responseTime": 1642965705570,
            "catchQuestion": "How many <b class=\"r\">red<\/b> marbles did you actually draw (before any changes)? ",
            "catchKey": -1,
            "catchResponse": -1,
            "catchTime": 1642965705570,
            "trialTime": 0
        },
        {
            "exptPart": "trial",
            "trialNumber": 61,
            "roleCurrent": "sender",
            "marblesSampled": 100,
            "probRed": 0.5,
            "lambda": 5,
            "drawnRed": 37,
            "reportedRed": 81,
            "inferredRed": 77,
            "playerTrialScore": 40,
            "oppTrialScore": -40,
            "playerTotalScore": 155,
            "oppTotalScore": -504,
            "waitTime": 3131.377600464732,
            "responseTime": 1642965835105,
            "catchQuestion": "How many <b class=\"r\">red<\/b> marbles did you actually draw (before any changes)? ",
            "catchKey": -1,
            "catchResponse": -1,
            "catchTime": 1642965705570,
            "trialTime": 0
        },
        {
            "exptPart": "trial",
            "trialNumber": 62,
            "roleCurrent": "receiver",
            "marblesSampled": 100,
            "probRed": 0.5,
            "lambda": 5,
            "drawnRed": 10,
            "reportedRed": 12,
            "inferredRed": 12,
            "playerTrialScore": -2,
            "oppTrialScore": 2,
            "playerTotalScore": 153,
            "oppTotalScore": -502,
            "waitTime": 5531.594584856426,
            "responseTime": 1642965855930,
            "catchQuestion": "How many <b class=\"r\">red<\/b> marbles did you actually draw (before any changes)? ",
            "catchKey": -1,
            "catchResponse": -1,
            "catchTime": 1642965705570,
            "trialTime": 0
        },
        {
            "exptPart": "trial",
            "trialNumber": 63,
            "roleCurrent": "sender",
            "marblesSampled": 100,
            "probRed": 0.5,
            "lambda": 5,
            "drawnRed": 46,
            "reportedRed": 100,
            "inferredRed": 96,
            "playerTrialScore": 50,
            "oppTrialScore": -50,
            "playerTotalScore": 203,
            "oppTotalScore": -552,
            "waitTime": 2071.826359506213,
            "responseTime": 1642965895641,
            "catchQuestion": "How many <b class=\"r\">red<\/b> marbles did you actually draw (before any changes)? ",
            "catchKey": -1,
            "catchResponse": -1,
            "catchTime": 1642965705570,
            "trialTime": 0
        },
        {
            "exptPart": "trial",
            "trialNumber": 64,
            "roleCurrent": "receiver",
            "marblesSampled": 100,
            "probRed": 0.5,
            "lambda": 5,
            "drawnRed": 62,
            "reportedRed": 69,
            "inferredRed": 54,
            "playerTrialScore": -8,
            "oppTrialScore": 0,
            "playerTotalScore": 195,
            "oppTotalScore": -552,
            "waitTime": 5264.160110197838,
            "responseTime": 1642965907764,
            "catchQuestion": "How many <b class=\"r\">red<\/b> marbles did you actually draw (before any changes)? ",
            "catchKey": -1,
            "catchResponse": -1,
            "catchTime": 1642965705570,
            "trialTime": 0
        },
        {
            "exptPart": "trial",
            "trialNumber": 65,
            "roleCurrent": "sender",
            "marblesSampled": 100,
            "probRed": 0.5,
            "lambda": 5,
            "drawnRed": 52,
            "reportedRed": 76,
            "inferredRed": 69,
            "playerTrialScore": 17,
            "oppTrialScore": -17,
            "playerTotalScore": 212,
            "oppTotalScore": -569,
            "waitTime": 2164.6562953529037,
            "responseTime": 1642965934346,
            "catchQuestion": "How many <b class=\"r\">red<\/b> marbles did you actually draw (before any changes)? ",
            "catchKey": -1,
            "catchResponse": -1,
            "catchTime": 1642965934347,
            "trialTime": 0
        },
        {
            "exptPart": "trial",
            "trialNumber": 66,
            "roleCurrent": "receiver",
            "marblesSampled": 100,
            "probRed": 0.5,
            "lambda": 5,
            "drawnRed": 76,
            "reportedRed": 84,
            "inferredRed": 69,
            "playerTrialScore": -7,
            "oppTrialScore": 0,
            "playerTotalScore": 205,
            "oppTotalScore": -569,
            "waitTime": 7026.080233865441,
            "responseTime": 1642965952466,
            "catchQuestion": "How many <b class=\"r\">red<\/b> marbles did you actually draw (before any changes)? ",
            "catchKey": -1,
            "catchResponse": -1,
            "catchTime": 1642965934347,
            "trialTime": 0
        },
        {
            "exptPart": "trial",
            "trialNumber": 67,
            "roleCurrent": "sender",
            "marblesSampled": 100,
            "probRed": 0.5,
            "lambda": 5,
            "drawnRed": 61,
            "reportedRed": 70,
            "inferredRed": 65,
            "playerTrialScore": 4,
            "oppTrialScore": -4,
            "playerTotalScore": 209,
            "oppTotalScore": -573,
            "waitTime": 2144.700960929453,
            "responseTime": 1642965969332,
            "catchQuestion": "How many <b class=\"r\">red<\/b> marbles did you actually draw (before any changes)? ",
            "catchKey": -1,
            "catchResponse": -1,
            "catchTime": 1642965934347,
            "trialTime": 0
        },
        {
            "exptPart": "trial",
            "trialNumber": 68,
            "roleCurrent": "receiver",
            "marblesSampled": 100,
            "probRed": 0.5,
            "lambda": 5,
            "drawnRed": 62,
            "reportedRed": 67,
            "inferredRed": 57,
            "playerTrialScore": -5,
            "oppTrialScore": 0,
            "playerTotalScore": 204,
            "oppTotalScore": -573,
            "waitTime": 7177.44970855646,
            "responseTime": 1642965984415,
            "catchQuestion": "How many <b class=\"r\">red<\/b> marbles did your opponent report drawing? ",
            "catchKey": 67,
            "catchResponse": 67,
            "catchTime": 1642965984415,
            "trialTime": 0
        },
        {
            "exptPart": "trial",
            "trialNumber": 69,
            "roleCurrent": "sender",
            "marblesSampled": 100,
            "probRed": 0.5,
            "lambda": 5,
            "drawnRed": 43,
            "reportedRed": 46,
            "inferredRed": 45,
            "playerTrialScore": 2,
            "oppTrialScore": -2,
            "playerTotalScore": 206,
            "oppTotalScore": -575,
            "waitTime": 2966.9078193577134,
            "responseTime": 1642966002094,
            "catchQuestion": "How many <b class=\"r\">red<\/b> marbles did your opponent report drawing? ",
            "catchKey": -1,
            "catchResponse": -1,
            "catchTime": 1642965984415,
            "trialTime": 0
        },
        {
            "exptPart": "trial",
            "trialNumber": 70,
            "roleCurrent": "receiver",
            "marblesSampled": 100,
            "probRed": 0.5,
            "lambda": 5,
            "drawnRed": 47,
            "reportedRed": 52,
            "inferredRed": 42,
            "playerTrialScore": -5,
            "oppTrialScore": 0,
            "playerTotalScore": 201,
            "oppTotalScore": -575,
            "waitTime": 6249.23375845589,
            "responseTime": 1642966019018,
            "catchQuestion": "How many <b class=\"r\">red<\/b> marbles did your opponent report drawing? ",
            "catchKey": -1,
            "catchResponse": -1,
            "catchTime": 1642966019018,
            "trialTime": 0
        },
        {
            "exptPart": "trial",
            "trialNumber": 71,
            "roleCurrent": "sender",
            "marblesSampled": 100,
            "probRed": 0.5,
            "lambda": 5,
            "drawnRed": 17,
            "reportedRed": 100,
            "inferredRed": 98,
            "playerTrialScore": 81,
            "oppTrialScore": -81,
            "playerTotalScore": 282,
            "oppTotalScore": -656,
            "waitTime": 2151.1276192201058,
            "responseTime": 1642966074819,
            "catchQuestion": "How many <b class=\"r\">red<\/b> marbles did your opponent report drawing? ",
            "catchKey": -1,
            "catchResponse": -1,
            "catchTime": 1642966019018,
            "trialTime": 0
        },
        {
            "exptPart": "trial",
            "trialNumber": 72,
            "roleCurrent": "receiver",
            "marblesSampled": 100,
            "probRed": 0.5,
            "lambda": 5,
            "drawnRed": 46,
            "reportedRed": 50,
            "inferredRed": 39,
            "playerTrialScore": -7,
            "oppTrialScore": 0,
            "playerTotalScore": 275,
            "oppTotalScore": -656,
            "waitTime": 5445.540947032057,
            "responseTime": 1642966085149,
            "catchQuestion": "How many <b class=\"r\">red<\/b> marbles did your opponent report drawing? ",
            "catchKey": -1,
            "catchResponse": -1,
            "catchTime": 1642966019018,
            "trialTime": 0
        },
        {
            "exptPart": "trial",
            "trialNumber": 73,
            "roleCurrent": "sender",
            "marblesSampled": 100,
            "probRed": 0.5,
            "lambda": 5,
            "drawnRed": 66,
            "reportedRed": 92,
            "inferredRed": 89,
            "playerTrialScore": 23,
            "oppTrialScore": -23,
            "playerTotalScore": 298,
            "oppTotalScore": -679,
            "waitTime": 2283.0751924539863,
            "responseTime": 1642966114039,
            "catchQuestion": "How many <b class=\"r\">red<\/b> marbles did your opponent report drawing? ",
            "catchKey": -1,
            "catchResponse": -1,
            "catchTime": 1642966019018,
            "trialTime": 0
        },
        {
            "exptPart": "trial",
            "trialNumber": 74,
            "roleCurrent": "receiver",
            "marblesSampled": 100,
            "probRed": 0.5,
            "lambda": 5,
            "drawnRed": 29,
            "reportedRed": 34,
            "inferredRed": 16,
            "playerTrialScore": -13,
            "oppTrialScore": 0,
            "playerTotalScore": 285,
            "oppTotalScore": -679,
            "waitTime": 5996.680303987623,
            "responseTime": 1642966136445,
            "catchQuestion": "How many <b class=\"r\">red<\/b> marbles did your opponent report drawing? ",
            "catchKey": -1,
            "catchResponse": -1,
            "catchTime": 1642966019018,
            "trialTime": 0
        },
        {
            "exptPart": "trial",
            "trialNumber": 75,
            "roleCurrent": "sender",
            "marblesSampled": 100,
            "probRed": 0.5,
            "lambda": 5,
            "drawnRed": 76,
            "reportedRed": 79,
            "inferredRed": 73,
            "playerTrialScore": 0,
            "oppTrialScore": -3,
            "playerTotalScore": 285,
            "oppTotalScore": -682,
            "waitTime": 2157.965884625302,
            "responseTime": 1642966147572,
            "catchQuestion": "How many <b class=\"r\">red<\/b> marbles did your opponent report drawing? ",
            "catchKey": -1,
            "catchResponse": -1,
            "catchTime": 1642966147572,
            "trialTime": 0
        },
        {
            "exptPart": "trial",
            "trialNumber": 76,
            "roleCurrent": "receiver",
            "marblesSampled": 100,
            "probRed": 0.5,
            "lambda": 5,
            "drawnRed": 45,
            "reportedRed": 49,
            "inferredRed": 43,
            "playerTrialScore": -2,
            "oppTrialScore": 0,
            "playerTotalScore": 283,
            "oppTotalScore": -682,
            "waitTime": 6541.446268741748,
            "responseTime": 1642966163176,
            "catchQuestion": "How many <b class=\"r\">red<\/b> marbles did your opponent report drawing? ",
            "catchKey": -1,
            "catchResponse": -1,
            "catchTime": 1642966147572,
            "trialTime": 0
        },
        {
            "exptPart": "trial",
            "trialNumber": 77,
            "roleCurrent": "sender",
            "marblesSampled": 100,
            "probRed": 0.5,
            "lambda": 5,
            "drawnRed": 34,
            "reportedRed": 100,
            "inferredRed": 92,
            "playerTrialScore": 58,
            "oppTrialScore": -58,
            "playerTotalScore": 341,
            "oppTotalScore": -740,
            "waitTime": 2389.022951227633,
            "responseTime": 1642966206512,
            "catchQuestion": "How many <b class=\"r\">red<\/b> marbles did your opponent report drawing? ",
            "catchKey": -1,
            "catchResponse": -1,
            "catchTime": 1642966147572,
            "trialTime": 0
        },
        {
            "exptPart": "trial",
            "trialNumber": 78,
            "roleCurrent": "receiver",
            "marblesSampled": 100,
            "probRed": 0.5,
            "lambda": 5,
            "drawnRed": 21,
            "reportedRed": 24,
            "inferredRed": 13,
            "playerTrialScore": -8,
            "oppTrialScore": 0,
            "playerTotalScore": 333,
            "oppTotalScore": -740,
            "waitTime": 5717.367532359378,
            "responseTime": 1642966222738,
            "catchQuestion": "How many <b class=\"r\">red<\/b> marbles did your opponent report drawing? ",
            "catchKey": -1,
            "catchResponse": -1,
            "catchTime": 1642966147572,
            "trialTime": 0
        },
        {
            "exptPart": "trial",
            "trialNumber": 79,
            "roleCurrent": "sender",
            "marblesSampled": 100,
            "probRed": 0.5,
            "lambda": 5,
            "drawnRed": 63,
            "reportedRed": 100,
            "inferredRed": 96,
            "playerTrialScore": 33,
            "oppTrialScore": -33,
            "playerTotalScore": 366,
            "oppTotalScore": -773,
            "waitTime": 2604.1698230870643,
            "responseTime": 1642966259499,
            "catchQuestion": "How many <b class=\"r\">red<\/b> marbles did your opponent report drawing? ",
            "catchKey": -1,
            "catchResponse": -1,
            "catchTime": 1642966147572,
            "trialTime": 0
        },
        {
            "exptPart": "trial",
            "trialNumber": 80,
            "roleCurrent": "receiver",
            "marblesSampled": 100,
            "probRed": 0.5,
            "lambda": 5,
            "drawnRed": 77,
            "reportedRed": 81,
            "inferredRed": 73,
            "playerTrialScore": -4,
            "oppTrialScore": 0,
            "playerTotalScore": 362,
            "oppTotalScore": -773,
            "waitTime": 5543.206582020686,
            "responseTime": 1642966278512,
            "catchQuestion": "How many <b class=\"r\">red<\/b> marbles did your opponent report drawing? ",
            "catchKey": -1,
            "catchResponse": -1,
            "catchTime": 1642966278512,
            "trialTime": 0
        },
        {
            "exptPart": "trial",
            "trialNumber": 81,
            "roleCurrent": "sender",
            "marblesSampled": 100,
            "probRed": 0.5,
            "lambda": 5,
            "drawnRed": 59,
            "reportedRed": 65,
            "inferredRed": 62,
            "playerTrialScore": 3,
            "oppTrialScore": -3,
            "playerTotalScore": 365,
            "oppTotalScore": -776,
            "waitTime": 2247.5864926517943,
            "responseTime": 1642966295501,
            "catchQuestion": "How many <b class=\"r\">red<\/b> marbles did you actually draw (before any changes)? ",
            "catchKey": 59,
            "catchResponse": 59,
            "catchTime": 1642966295501,
            "trialTime": 0
        },
        {
            "exptPart": "trial",
            "trialNumber": 82,
            "roleCurrent": "receiver",
            "marblesSampled": 100,
            "probRed": 0.5,
            "lambda": 5,
            "drawnRed": 46,
            "reportedRed": 56,
            "inferredRed": 41,
            "playerTrialScore": -5,
            "oppTrialScore": 0,
            "playerTotalScore": 360,
            "oppTotalScore": -776,
            "waitTime": 6885.526085325251,
            "responseTime": 1642966320832,
            "catchQuestion": "How many <b class=\"r\">red<\/b> marbles did you actually draw (before any changes)? ",
            "catchKey": -1,
            "catchResponse": -1,
            "catchTime": 1642966295501,
            "trialTime": 0
        },
        {
            "exptPart": "trial",
            "trialNumber": 83,
            "roleCurrent": "sender",
            "marblesSampled": 100,
            "probRed": 0.5,
            "lambda": 5,
            "drawnRed": 21,
            "reportedRed": 100,
            "inferredRed": 94,
            "playerTrialScore": 73,
            "oppTrialScore": -73,
            "playerTotalScore": 433,
            "oppTotalScore": -849,
            "waitTime": 2758.5227107149676,
            "responseTime": 1642966369011,
            "catchQuestion": "How many <b class=\"r\">red<\/b> marbles did you actually draw (before any changes)? ",
            "catchKey": -1,
            "catchResponse": -1,
            "catchTime": 1642966295501,
            "trialTime": 0
        },
        {
            "exptPart": "trial",
            "trialNumber": 84,
            "roleCurrent": "receiver",
            "marblesSampled": 100,
            "probRed": 0.5,
            "lambda": 5,
            "drawnRed": 84,
            "reportedRed": 89,
            "inferredRed": 70,
            "playerTrialScore": -14,
            "oppTrialScore": 0,
            "playerTotalScore": 419,
            "oppTotalScore": -849,
            "waitTime": 6569.167963550119,
            "responseTime": 1642966388860,
            "catchQuestion": "How many <b class=\"r\">red<\/b> marbles did you actually draw (before any changes)? ",
            "catchKey": -1,
            "catchResponse": -1,
            "catchTime": 1642966295501,
            "trialTime": 0
        },
        {
            "exptPart": "trial",
            "trialNumber": 85,
            "roleCurrent": "sender",
            "marblesSampled": 100,
            "probRed": 0.5,
            "lambda": 5,
            "drawnRed": 32,
            "reportedRed": 75,
            "inferredRed": 67,
            "playerTrialScore": 35,
            "oppTrialScore": -35,
            "playerTotalScore": 454,
            "oppTotalScore": -884,
            "waitTime": 2420.9483282534566,
            "responseTime": 1642966424651,
            "catchQuestion": "How many <b class=\"r\">red<\/b> marbles did you actually draw (before any changes)? ",
            "catchKey": -1,
            "catchResponse": -1,
            "catchTime": 1642966424651,
            "trialTime": 0
        },
        {
            "exptPart": "trial",
            "trialNumber": 86,
            "roleCurrent": "receiver",
            "marblesSampled": 100,
            "probRed": 0.5,
            "lambda": 5,
            "drawnRed": 45,
            "reportedRed": 50,
            "inferredRed": 49,
            "playerTrialScore": -4,
            "oppTrialScore": 4,
            "playerTotalScore": 450,
            "oppTotalScore": -880,
            "waitTime": 5783.98763169891,
            "responseTime": 1642966438183,
            "catchQuestion": "How many <b class=\"r\">red<\/b> marbles did your opponent report drawing? ",
            "catchKey": 50,
            "catchResponse": 50,
            "catchTime": 1642966438183,
            "trialTime": 0
        },
        {
            "exptPart": "trial",
            "trialNumber": 87,
            "roleCurrent": "sender",
            "marblesSampled": 100,
            "probRed": 0.5,
            "lambda": 5,
            "drawnRed": 48,
            "reportedRed": 49,
            "inferredRed": 49,
            "playerTrialScore": 1,
            "oppTrialScore": -1,
            "playerTotalScore": 451,
            "oppTotalScore": -881,
            "waitTime": 2940.238991973736,
            "responseTime": 1642966452308,
            "catchQuestion": "How many <b class=\"r\">red<\/b> marbles did your opponent report drawing? ",
            "catchKey": -1,
            "catchResponse": -1,
            "catchTime": 1642966438183,
            "trialTime": 0
        },
        {
            "exptPart": "trial",
            "trialNumber": 88,
            "roleCurrent": "receiver",
            "marblesSampled": 100,
            "probRed": 0.5,
            "lambda": 5,
            "drawnRed": 50,
            "reportedRed": 58,
            "inferredRed": 47,
            "playerTrialScore": -3,
            "oppTrialScore": 0,
            "playerTotalScore": 448,
            "oppTotalScore": -881,
            "waitTime": 5531.531560954525,
            "responseTime": 1642966463066,
            "catchQuestion": "How many <b class=\"r\">red<\/b> marbles did your opponent report drawing? ",
            "catchKey": -1,
            "catchResponse": -1,
            "catchTime": 1642966438183,
            "trialTime": 0
        },
        {
            "exptPart": "trial",
            "trialNumber": 89,
            "roleCurrent": "sender",
            "marblesSampled": 100,
            "probRed": 0.5,
            "lambda": 5,
            "drawnRed": 68,
            "reportedRed": 78,
            "inferredRed": 72,
            "playerTrialScore": 4,
            "oppTrialScore": -4,
            "playerTotalScore": 452,
            "oppTotalScore": -885,
            "waitTime": 3229.173915839823,
            "responseTime": 1642966478631,
            "catchQuestion": "How many <b class=\"r\">red<\/b> marbles did your opponent report drawing? ",
            "catchKey": -1,
            "catchResponse": -1,
            "catchTime": 1642966438183,
            "trialTime": 0
        },
        {
            "exptPart": "trial",
            "trialNumber": 90,
            "roleCurrent": "receiver",
            "marblesSampled": 100,
            "probRed": 0.5,
            "lambda": 5,
            "drawnRed": 58,
            "reportedRed": 61,
            "inferredRed": 52,
            "playerTrialScore": -6,
            "oppTrialScore": 0,
            "playerTotalScore": 446,
            "oppTotalScore": -885,
            "waitTime": 7282.541299969964,
            "responseTime": 1642966494778,
            "catchQuestion": "How many <b class=\"r\">red<\/b> marbles did your opponent report drawing? ",
            "catchKey": -1,
            "catchResponse": -1,
            "catchTime": 1642966494778,
            "trialTime": 0
        },
        {
            "exptPart": "trial",
            "trialNumber": 91,
            "roleCurrent": "sender",
            "marblesSampled": 100,
            "probRed": 0.5,
            "lambda": 5,
            "drawnRed": 59,
            "reportedRed": 100,
            "inferredRed": 95,
            "playerTrialScore": 36,
            "oppTrialScore": -36,
            "playerTotalScore": 482,
            "oppTotalScore": -921,
            "waitTime": 2748.317187730465,
            "responseTime": 1642966530289,
            "catchQuestion": "How many <b class=\"r\">red<\/b> marbles did your opponent report drawing? ",
            "catchKey": -1,
            "catchResponse": -1,
            "catchTime": 1642966494778,
            "trialTime": 0
        },
        {
            "exptPart": "trial",
            "trialNumber": 92,
            "roleCurrent": "receiver",
            "marblesSampled": 100,
            "probRed": 0.5,
            "lambda": 5,
            "drawnRed": 21,
            "reportedRed": 24,
            "inferredRed": 20,
            "playerTrialScore": -1,
            "oppTrialScore": 0,
            "playerTotalScore": 481,
            "oppTotalScore": -921,
            "waitTime": 6669.725023198199,
            "responseTime": 1642966542996,
            "catchQuestion": "How many <b class=\"r\">red<\/b> marbles did your opponent report drawing? ",
            "catchKey": -1,
            "catchResponse": -1,
            "catchTime": 1642966494778,
            "trialTime": 0
        },
        {
            "exptPart": "trial",
            "trialNumber": 93,
            "roleCurrent": "sender",
            "marblesSampled": 100,
            "probRed": 0.5,
            "lambda": 5,
            "drawnRed": 44,
            "reportedRed": 100,
            "inferredRed": 95,
            "playerTrialScore": 51,
            "oppTrialScore": -51,
            "playerTotalScore": 532,
            "oppTotalScore": -972,
            "waitTime": 2190.4942676589753,
            "responseTime": 1642966590247,
            "catchQuestion": "How many <b class=\"r\">red<\/b> marbles did your opponent report drawing? ",
            "catchKey": -1,
            "catchResponse": -1,
            "catchTime": 1642966494778,
            "trialTime": 0
        },
        {
            "exptPart": "trial",
            "trialNumber": 94,
            "roleCurrent": "receiver",
            "marblesSampled": 100,
            "probRed": 0.5,
            "lambda": 5,
            "drawnRed": 21,
            "reportedRed": 28,
            "inferredRed": 25,
            "playerTrialScore": -4,
            "oppTrialScore": 4,
            "playerTotalScore": 528,
            "oppTotalScore": -968,
            "waitTime": 5894.246350229871,
            "responseTime": 1642966609379,
            "catchQuestion": "How many <b class=\"r\">red<\/b> marbles did your opponent report drawing? ",
            "catchKey": -1,
            "catchResponse": -1,
            "catchTime": 1642966494778,
            "trialTime": 0
        },
        {
            "exptPart": "trial",
            "trialNumber": 95,
            "roleCurrent": "sender",
            "marblesSampled": 100,
            "probRed": 0.5,
            "lambda": 5,
            "drawnRed": 46,
            "reportedRed": 100,
            "inferredRed": 98,
            "playerTrialScore": 52,
            "oppTrialScore": -52,
            "playerTotalScore": 580,
            "oppTotalScore": -1020,
            "waitTime": 2455.0229123629433,
            "responseTime": 1642966647753,
            "catchQuestion": "How many <b class=\"r\">red<\/b> marbles did your opponent report drawing? ",
            "catchKey": -1,
            "catchResponse": -1,
            "catchTime": 1642966647753,
            "trialTime": 0
        },
        {
            "exptPart": "trial",
            "trialNumber": 96,
            "roleCurrent": "receiver",
            "marblesSampled": 100,
            "probRed": 0.5,
            "lambda": 5,
            "drawnRed": 66,
            "reportedRed": 76,
            "inferredRed": 72,
            "playerTrialScore": -6,
            "oppTrialScore": 6,
            "playerTotalScore": 574,
            "oppTotalScore": -1014,
            "waitTime": 6488.904885258086,
            "responseTime": 1642966662907,
            "catchQuestion": "How many <b class=\"r\">red<\/b> marbles did your opponent report drawing? ",
            "catchKey": 76,
            "catchResponse": 76,
            "catchTime": 1642966662907,
            "trialTime": 0
        },
        {
            "exptPart": "trial",
            "trialNumber": 97,
            "roleCurrent": "sender",
            "marblesSampled": 100,
            "probRed": 0.5,
            "lambda": 5,
            "drawnRed": 80,
            "reportedRed": 92,
            "inferredRed": 88,
            "playerTrialScore": 8,
            "oppTrialScore": -8,
            "playerTotalScore": 582,
            "oppTotalScore": -1022,
            "waitTime": 3230.172607741494,
            "responseTime": 1642966688987,
            "catchQuestion": "How many <b class=\"r\">red<\/b> marbles did your opponent report drawing? ",
            "catchKey": -1,
            "catchResponse": -1,
            "catchTime": 1642966662907,
            "trialTime": 0
        },
        {
            "exptPart": "trial",
            "trialNumber": 98,
            "roleCurrent": "receiver",
            "marblesSampled": 100,
            "probRed": 0.5,
            "lambda": 5,
            "drawnRed": 84,
            "reportedRed": 90,
            "inferredRed": 76,
            "playerTrialScore": -8,
            "oppTrialScore": 0,
            "playerTotalScore": 574,
            "oppTotalScore": -1022,
            "waitTime": 5535.732989363642,
            "responseTime": 1642966701362,
            "catchQuestion": "How many <b class=\"r\">red<\/b> marbles did your opponent report drawing? ",
            "catchKey": -1,
            "catchResponse": -1,
            "catchTime": 1642966662907,
            "trialTime": 0
        },
        {
            "exptPart": "trial",
            "trialNumber": 99,
            "roleCurrent": "sender",
            "marblesSampled": 100,
            "probRed": 0.5,
            "lambda": 5,
            "drawnRed": 52,
            "reportedRed": 77,
            "inferredRed": 74,
            "playerTrialScore": 22,
            "oppTrialScore": -22,
            "playerTotalScore": 596,
            "oppTotalScore": -1044,
            "waitTime": 2362.2370358483263,
            "responseTime": 1642966727173,
            "catchQuestion": "How many <b class=\"r\">red<\/b> marbles did your opponent report drawing? ",
            "catchKey": -1,
            "catchResponse": -1,
            "catchTime": 1642966662907,
            "trialTime": 0
        },
        {
            "exptPart": "trial",
            "trialNumber": 100,
            "roleCurrent": "receiver",
            "marblesSampled": 100,
            "probRed": 0.5,
            "lambda": 5,
            "drawnRed": 24,
            "reportedRed": 30,
            "inferredRed": 28,
            "playerTrialScore": -4,
            "oppTrialScore": 4,
            "playerTotalScore": 592,
            "oppTotalScore": -1040,
            "waitTime": 5960.122329212982,
            "responseTime": 1642966738459,
            "catchQuestion": "How many <b class=\"r\">red<\/b> marbles did your opponent report drawing? ",
            "catchKey": 30,
            "catchResponse": 30,
            "catchTime": 1642966738459,
            "trialTime": 0
        }
    ]
}