{
    "client": {
        "type": "sona",
        "experiment_id": 2228,
        "credit_token": "b315147ae43241ea9c65086cb510cfb7",
        "survey_code": "27691",
        "sid": "sona-27691",
        "window": {
            "width": 1368,
            "height": 769
        },
        "screen": {
            "width": 1368,
            "height": 912
        },
        "userAgent": "Mozilla\/5.0 (Windows NT 10.0; Win64; x64) AppleWebKit\/537.36 (KHTML, like Gecko) Chrome\/97.0.4692.71 Safari\/537.36",
        "score": 0,
        "bonus": 0
    },
    "expt": {
        "saveURL": "submit.simple.php",
        "trials": 100,
        "practiceTrials": 2,
        "marblesSampled": 100,
        "probRed": 0.5,
        "lambdaAI": 5,
        "roleFirst": "sender",
        "roles": [
            "sender",
            "receiver"
        ],
        "cost": "unif",
        "goal": "over",
        "catchTrials": [
            73,
            41,
            23,
            87,
            50,
            43,
            6,
            96,
            72,
            18
        ],
        "scoreTotal": {
            "player": -1205,
            "opp": -948
        },
        "sona": {
            "experiment_id": 2228,
            "credit_token": "b315147ae43241ea9c65086cb510cfb7"
        },
        "pilot": false,
        "debug": false
    },
    "trials": [
        {
            "exptPart": "practice",
            "trialNumber": 1,
            "roleCurrent": "sender",
            "marblesSampled": 100,
            "probRed": 0.5,
            "lambda": 5,
            "drawnRed": 45,
            "reportedRed": 50,
            "inferredRed": 41,
            "playerTrialScore": 0,
            "oppTrialScore": -4,
            "playerTotalScore": 0,
            "oppTotalScore": -4,
            "waitTime": 3049.3292473945694,
            "responseTime": 1642976137299,
            "catchQuestion": "How many <b class=\"r\">red<\/b> marbles did you actually draw (before any changes)? ",
            "catchKey": 45,
            "catchResponse": 45,
            "catchTime": 1642976137300,
            "trialTime": 0
        },
        {
            "exptPart": "practice",
            "trialNumber": 2,
            "roleCurrent": "receiver",
            "marblesSampled": 100,
            "probRed": 0.5,
            "lambda": 5,
            "drawnRed": 57,
            "reportedRed": 59,
            "inferredRed": 51,
            "playerTrialScore": -6,
            "oppTrialScore": 0,
            "playerTotalScore": -6,
            "oppTotalScore": -4,
            "waitTime": 6793.757843567539,
            "responseTime": 1642976187741,
            "catchQuestion": "How many <b class=\"r\">red<\/b> marbles did your opponent report drawing? ",
            "catchKey": 59,
            "catchResponse": 59,
            "catchTime": 1642976187741,
            "trialTime": 0
        },
        {
            "exptPart": "trial",
            "trialNumber": 1,
            "roleCurrent": "sender",
            "marblesSampled": 100,
            "probRed": 0.5,
            "lambda": 5,
            "drawnRed": 50,
            "reportedRed": 62,
            "inferredRed": 57,
            "playerTrialScore": 7,
            "oppTrialScore": -7,
            "playerTotalScore": 7,
            "oppTotalScore": -7,
            "waitTime": 2435.372048548532,
            "responseTime": 1642976250173,
            "catchQuestion": "How many <b class=\"r\">red<\/b> marbles did your opponent report drawing? ",
            "catchKey": -1,
            "catchResponse": -1,
            "catchTime": 1642976187741,
            "trialTime": 0
        },
        {
            "exptPart": "trial",
            "trialNumber": 2,
            "roleCurrent": "receiver",
            "marblesSampled": 100,
            "probRed": 0.5,
            "lambda": 5,
            "drawnRed": 67,
            "reportedRed": 69,
            "inferredRed": 51,
            "playerTrialScore": -16,
            "oppTrialScore": 0,
            "playerTotalScore": -9,
            "oppTotalScore": -7,
            "waitTime": 6366.153508741878,
            "responseTime": 1642976270156,
            "catchQuestion": "How many <b class=\"r\">red<\/b> marbles did your opponent report drawing? ",
            "catchKey": -1,
            "catchResponse": -1,
            "catchTime": 1642976187741,
            "trialTime": 0
        },
        {
            "exptPart": "trial",
            "trialNumber": 3,
            "roleCurrent": "sender",
            "marblesSampled": 100,
            "probRed": 0.5,
            "lambda": 5,
            "drawnRed": 60,
            "reportedRed": 65,
            "inferredRed": 59,
            "playerTrialScore": 0,
            "oppTrialScore": -1,
            "playerTotalScore": -9,
            "oppTotalScore": -8,
            "waitTime": 2786.489501394591,
            "responseTime": 1642976296713,
            "catchQuestion": "How many <b class=\"r\">red<\/b> marbles did your opponent report drawing? ",
            "catchKey": -1,
            "catchResponse": -1,
            "catchTime": 1642976187741,
            "trialTime": 0
        },
        {
            "exptPart": "trial",
            "trialNumber": 4,
            "roleCurrent": "receiver",
            "marblesSampled": 100,
            "probRed": 0.5,
            "lambda": 5,
            "drawnRed": 39,
            "reportedRed": 42,
            "inferredRed": 49,
            "playerTrialScore": -10,
            "oppTrialScore": 10,
            "playerTotalScore": -19,
            "oppTotalScore": 2,
            "waitTime": 5126.033788058769,
            "responseTime": 1642976314346,
            "catchQuestion": "How many <b class=\"r\">red<\/b> marbles did your opponent report drawing? ",
            "catchKey": -1,
            "catchResponse": -1,
            "catchTime": 1642976187741,
            "trialTime": 0
        },
        {
            "exptPart": "trial",
            "trialNumber": 5,
            "roleCurrent": "sender",
            "marblesSampled": 100,
            "probRed": 0.5,
            "lambda": 5,
            "drawnRed": 60,
            "reportedRed": 68,
            "inferredRed": 63,
            "playerTrialScore": 3,
            "oppTrialScore": -3,
            "playerTotalScore": -16,
            "oppTotalScore": -1,
            "waitTime": 2289.0680673564348,
            "responseTime": 1642976340089,
            "catchQuestion": "How many <b class=\"r\">red<\/b> marbles did your opponent report drawing? ",
            "catchKey": -1,
            "catchResponse": -1,
            "catchTime": 1642976340089,
            "trialTime": 0
        },
        {
            "exptPart": "trial",
            "trialNumber": 6,
            "roleCurrent": "receiver",
            "marblesSampled": 100,
            "probRed": 0.5,
            "lambda": 5,
            "drawnRed": 72,
            "reportedRed": 77,
            "inferredRed": 53,
            "playerTrialScore": -19,
            "oppTrialScore": 0,
            "playerTotalScore": -35,
            "oppTotalScore": -1,
            "waitTime": 5200.148666878747,
            "responseTime": 1642976361361,
            "catchQuestion": "How many <b class=\"r\">red<\/b> marbles did your opponent report drawing? ",
            "catchKey": -1,
            "catchResponse": -1,
            "catchTime": 1642976340089,
            "trialTime": 0
        },
        {
            "exptPart": "trial",
            "trialNumber": 7,
            "roleCurrent": "sender",
            "marblesSampled": 100,
            "probRed": 0.5,
            "lambda": 5,
            "drawnRed": 37,
            "reportedRed": 51,
            "inferredRed": 46,
            "playerTrialScore": 9,
            "oppTrialScore": -9,
            "playerTotalScore": -26,
            "oppTotalScore": -10,
            "waitTime": 2401.153861792005,
            "responseTime": 1642976390646,
            "catchQuestion": "How many <b class=\"r\">red<\/b> marbles did you actually draw (before any changes)? ",
            "catchKey": 37,
            "catchResponse": 45,
            "catchTime": 1642976390647,
            "trialTime": 0
        },
        {
            "exptPart": "trial",
            "trialNumber": 8,
            "roleCurrent": "receiver",
            "marblesSampled": 100,
            "probRed": 0.5,
            "lambda": 5,
            "drawnRed": 49,
            "reportedRed": 53,
            "inferredRed": 50,
            "playerTrialScore": -1,
            "oppTrialScore": 1,
            "playerTotalScore": -27,
            "oppTotalScore": -9,
            "waitTime": 7380.091009340453,
            "responseTime": 1642976431417,
            "catchQuestion": "How many <b class=\"r\">red<\/b> marbles did you actually draw (before any changes)? ",
            "catchKey": -1,
            "catchResponse": -1,
            "catchTime": 1642976390647,
            "trialTime": 0
        },
        {
            "exptPart": "trial",
            "trialNumber": 9,
            "roleCurrent": "sender",
            "marblesSampled": 100,
            "probRed": 0.5,
            "lambda": 5,
            "drawnRed": 65,
            "reportedRed": 65,
            "inferredRed": 52,
            "playerTrialScore": 0,
            "oppTrialScore": -13,
            "playerTotalScore": -27,
            "oppTotalScore": -22,
            "waitTime": 3133.331041756681,
            "responseTime": 1642976448865,
            "catchQuestion": "How many <b class=\"r\">red<\/b> marbles did you actually draw (before any changes)? ",
            "catchKey": -1,
            "catchResponse": -1,
            "catchTime": 1642976390647,
            "trialTime": 0
        },
        {
            "exptPart": "trial",
            "trialNumber": 10,
            "roleCurrent": "receiver",
            "marblesSampled": 100,
            "probRed": 0.5,
            "lambda": 5,
            "drawnRed": 63,
            "reportedRed": 69,
            "inferredRed": 53,
            "playerTrialScore": -10,
            "oppTrialScore": 0,
            "playerTotalScore": -37,
            "oppTotalScore": -22,
            "waitTime": 5798.298549075682,
            "responseTime": 1642976466525,
            "catchQuestion": "How many <b class=\"r\">red<\/b> marbles did you actually draw (before any changes)? ",
            "catchKey": -1,
            "catchResponse": -1,
            "catchTime": 1642976466525,
            "trialTime": 0
        },
        {
            "exptPart": "trial",
            "trialNumber": 11,
            "roleCurrent": "sender",
            "marblesSampled": 100,
            "probRed": 0.5,
            "lambda": 5,
            "drawnRed": 5,
            "reportedRed": 47,
            "inferredRed": 41,
            "playerTrialScore": 36,
            "oppTrialScore": -36,
            "playerTotalScore": -1,
            "oppTotalScore": -58,
            "waitTime": 2164.6078120088873,
            "responseTime": 1642976552919,
            "catchQuestion": "How many <b class=\"r\">red<\/b> marbles did you actually draw (before any changes)? ",
            "catchKey": -1,
            "catchResponse": -1,
            "catchTime": 1642976466525,
            "trialTime": 0
        },
        {
            "exptPart": "trial",
            "trialNumber": 12,
            "roleCurrent": "receiver",
            "marblesSampled": 100,
            "probRed": 0.5,
            "lambda": 5,
            "drawnRed": 32,
            "reportedRed": 34,
            "inferredRed": 40,
            "playerTrialScore": -8,
            "oppTrialScore": 8,
            "playerTotalScore": -9,
            "oppTotalScore": -50,
            "waitTime": 7005.305539998977,
            "responseTime": 1642976566498,
            "catchQuestion": "How many <b class=\"r\">red<\/b> marbles did you actually draw (before any changes)? ",
            "catchKey": -1,
            "catchResponse": -1,
            "catchTime": 1642976466525,
            "trialTime": 0
        },
        {
            "exptPart": "trial",
            "trialNumber": 13,
            "roleCurrent": "sender",
            "marblesSampled": 100,
            "probRed": 0.5,
            "lambda": 5,
            "drawnRed": 67,
            "reportedRed": 69,
            "inferredRed": 60,
            "playerTrialScore": 0,
            "oppTrialScore": -7,
            "playerTotalScore": -9,
            "oppTotalScore": -57,
            "waitTime": 2502.525525622248,
            "responseTime": 1642976586541,
            "catchQuestion": "How many <b class=\"r\">red<\/b> marbles did you actually draw (before any changes)? ",
            "catchKey": -1,
            "catchResponse": -1,
            "catchTime": 1642976466525,
            "trialTime": 0
        },
        {
            "exptPart": "trial",
            "trialNumber": 14,
            "roleCurrent": "receiver",
            "marblesSampled": 100,
            "probRed": 0.5,
            "lambda": 5,
            "drawnRed": 75,
            "reportedRed": 78,
            "inferredRed": 55,
            "playerTrialScore": -20,
            "oppTrialScore": 0,
            "playerTotalScore": -29,
            "oppTotalScore": -57,
            "waitTime": 5697.335802758577,
            "responseTime": 1642976608324,
            "catchQuestion": "How many <b class=\"r\">red<\/b> marbles did you actually draw (before any changes)? ",
            "catchKey": -1,
            "catchResponse": -1,
            "catchTime": 1642976466525,
            "trialTime": 0
        },
        {
            "exptPart": "trial",
            "trialNumber": 15,
            "roleCurrent": "sender",
            "marblesSampled": 100,
            "probRed": 0.5,
            "lambda": 5,
            "drawnRed": 25,
            "reportedRed": 55,
            "inferredRed": 51,
            "playerTrialScore": 26,
            "oppTrialScore": -26,
            "playerTotalScore": -3,
            "oppTotalScore": -83,
            "waitTime": 3246.6940867784997,
            "responseTime": 1642976649069,
            "catchQuestion": "How many <b class=\"r\">red<\/b> marbles did you actually draw (before any changes)? ",
            "catchKey": -1,
            "catchResponse": -1,
            "catchTime": 1642976649069,
            "trialTime": 0
        },
        {
            "exptPart": "trial",
            "trialNumber": 16,
            "roleCurrent": "receiver",
            "marblesSampled": 100,
            "probRed": 0.5,
            "lambda": 5,
            "drawnRed": 38,
            "reportedRed": 41,
            "inferredRed": 30,
            "playerTrialScore": -8,
            "oppTrialScore": 0,
            "playerTotalScore": -11,
            "oppTotalScore": -83,
            "waitTime": 7428.088951467871,
            "responseTime": 1642976685718,
            "catchQuestion": "How many <b class=\"r\">red<\/b> marbles did you actually draw (before any changes)? ",
            "catchKey": -1,
            "catchResponse": -1,
            "catchTime": 1642976649069,
            "trialTime": 0
        },
        {
            "exptPart": "trial",
            "trialNumber": 17,
            "roleCurrent": "sender",
            "marblesSampled": 100,
            "probRed": 0.5,
            "lambda": 5,
            "drawnRed": 59,
            "reportedRed": 57,
            "inferredRed": 51,
            "playerTrialScore": 0,
            "oppTrialScore": -8,
            "playerTotalScore": -11,
            "oppTotalScore": -91,
            "waitTime": 2992.590283068932,
            "responseTime": 1642976725692,
            "catchQuestion": "How many <b class=\"r\">red<\/b> marbles did you actually draw (before any changes)? ",
            "catchKey": -1,
            "catchResponse": -1,
            "catchTime": 1642976649069,
            "trialTime": 0
        },
        {
            "exptPart": "trial",
            "trialNumber": 18,
            "roleCurrent": "receiver",
            "marblesSampled": 100,
            "probRed": 0.5,
            "lambda": 5,
            "drawnRed": 35,
            "reportedRed": 40,
            "inferredRed": 40,
            "playerTrialScore": -5,
            "oppTrialScore": 5,
            "playerTotalScore": -16,
            "oppTotalScore": -86,
            "waitTime": 5423.386536846592,
            "responseTime": 1642976738659,
            "catchQuestion": "How many <b class=\"r\">red<\/b> marbles did you actually draw (before any changes)? ",
            "catchKey": -1,
            "catchResponse": -1,
            "catchTime": 1642976649069,
            "trialTime": 0
        },
        {
            "exptPart": "trial",
            "trialNumber": 19,
            "roleCurrent": "sender",
            "marblesSampled": 100,
            "probRed": 0.5,
            "lambda": 5,
            "drawnRed": 61,
            "reportedRed": 61,
            "inferredRed": 54,
            "playerTrialScore": 0,
            "oppTrialScore": -7,
            "playerTotalScore": -16,
            "oppTotalScore": -93,
            "waitTime": 2232.0940415211026,
            "responseTime": 1642976751008,
            "catchQuestion": "How many <b class=\"r\">red<\/b> marbles did you actually draw (before any changes)? ",
            "catchKey": 61,
            "catchResponse": 61,
            "catchTime": 1642976751008,
            "trialTime": 0
        },
        {
            "exptPart": "trial",
            "trialNumber": 20,
            "roleCurrent": "receiver",
            "marblesSampled": 100,
            "probRed": 0.5,
            "lambda": 5,
            "drawnRed": 63,
            "reportedRed": 71,
            "inferredRed": 71,
            "playerTrialScore": -8,
            "oppTrialScore": 8,
            "playerTotalScore": -24,
            "oppTotalScore": -85,
            "waitTime": 7296.499825733324,
            "responseTime": 1642976770160,
            "catchQuestion": "How many <b class=\"r\">red<\/b> marbles did you actually draw (before any changes)? ",
            "catchKey": -1,
            "catchResponse": -1,
            "catchTime": 1642976770160,
            "trialTime": 0
        },
        {
            "exptPart": "trial",
            "trialNumber": 21,
            "roleCurrent": "sender",
            "marblesSampled": 100,
            "probRed": 0.5,
            "lambda": 5,
            "drawnRed": 56,
            "reportedRed": 100,
            "inferredRed": 96,
            "playerTrialScore": 40,
            "oppTrialScore": -40,
            "playerTotalScore": 16,
            "oppTotalScore": -125,
            "waitTime": 2466.3218118659106,
            "responseTime": 1642976829163,
            "catchQuestion": "How many <b class=\"r\">red<\/b> marbles did you actually draw (before any changes)? ",
            "catchKey": -1,
            "catchResponse": -1,
            "catchTime": 1642976770160,
            "trialTime": 0
        },
        {
            "exptPart": "trial",
            "trialNumber": 22,
            "roleCurrent": "receiver",
            "marblesSampled": 100,
            "probRed": 0.5,
            "lambda": 5,
            "drawnRed": 42,
            "reportedRed": 45,
            "inferredRed": 49,
            "playerTrialScore": -7,
            "oppTrialScore": 7,
            "playerTotalScore": 9,
            "oppTotalScore": -118,
            "waitTime": 6577.284510500398,
            "responseTime": 1642976844623,
            "catchQuestion": "How many <b class=\"r\">red<\/b> marbles did you actually draw (before any changes)? ",
            "catchKey": -1,
            "catchResponse": -1,
            "catchTime": 1642976770160,
            "trialTime": 0
        },
        {
            "exptPart": "trial",
            "trialNumber": 23,
            "roleCurrent": "sender",
            "marblesSampled": 100,
            "probRed": 0.5,
            "lambda": 5,
            "drawnRed": 31,
            "reportedRed": 100,
            "inferredRed": 95,
            "playerTrialScore": 64,
            "oppTrialScore": -64,
            "playerTotalScore": 73,
            "oppTotalScore": -182,
            "waitTime": 2239.2673492802896,
            "responseTime": 1642976914553,
            "catchQuestion": "How many <b class=\"r\">red<\/b> marbles did you actually draw (before any changes)? ",
            "catchKey": -1,
            "catchResponse": -1,
            "catchTime": 1642976770160,
            "trialTime": 0
        },
        {
            "exptPart": "trial",
            "trialNumber": 24,
            "roleCurrent": "receiver",
            "marblesSampled": 100,
            "probRed": 0.5,
            "lambda": 5,
            "drawnRed": 55,
            "reportedRed": 59,
            "inferredRed": 51,
            "playerTrialScore": -4,
            "oppTrialScore": 0,
            "playerTotalScore": 69,
            "oppTotalScore": -182,
            "waitTime": 6687.136506861924,
            "responseTime": 1642976931910,
            "catchQuestion": "How many <b class=\"r\">red<\/b> marbles did your opponent report drawing? ",
            "catchKey": 59,
            "catchResponse": 59,
            "catchTime": 1642976931911,
            "trialTime": 0
        },
        {
            "exptPart": "trial",
            "trialNumber": 25,
            "roleCurrent": "sender",
            "marblesSampled": 100,
            "probRed": 0.5,
            "lambda": 5,
            "drawnRed": 68,
            "reportedRed": 68,
            "inferredRed": 64,
            "playerTrialScore": 0,
            "oppTrialScore": -4,
            "playerTotalScore": 69,
            "oppTotalScore": -186,
            "waitTime": 2956.2443217973705,
            "responseTime": 1642977053427,
            "catchQuestion": "How many <b class=\"r\">red<\/b> marbles did your opponent report drawing? ",
            "catchKey": -1,
            "catchResponse": -1,
            "catchTime": 1642977053427,
            "trialTime": 0
        },
        {
            "exptPart": "trial",
            "trialNumber": 26,
            "roleCurrent": "receiver",
            "marblesSampled": 100,
            "probRed": 0.5,
            "lambda": 5,
            "drawnRed": 67,
            "reportedRed": 76,
            "inferredRed": 40,
            "playerTrialScore": -27,
            "oppTrialScore": 0,
            "playerTotalScore": 42,
            "oppTotalScore": -186,
            "waitTime": 5510.864357080778,
            "responseTime": 1642977074827,
            "catchQuestion": "How many <b class=\"r\">red<\/b> marbles did your opponent report drawing? ",
            "catchKey": -1,
            "catchResponse": -1,
            "catchTime": 1642977053427,
            "trialTime": 0
        },
        {
            "exptPart": "trial",
            "trialNumber": 27,
            "roleCurrent": "sender",
            "marblesSampled": 100,
            "probRed": 0.5,
            "lambda": 5,
            "drawnRed": 29,
            "reportedRed": 0,
            "inferredRed": 0,
            "playerTrialScore": 0,
            "oppTrialScore": -29,
            "playerTotalScore": 42,
            "oppTotalScore": -215,
            "waitTime": 2072.2396728378253,
            "responseTime": 1642977115811,
            "catchQuestion": "How many <b class=\"r\">red<\/b> marbles did your opponent report drawing? ",
            "catchKey": -1,
            "catchResponse": -1,
            "catchTime": 1642977053427,
            "trialTime": 0
        },
        {
            "exptPart": "trial",
            "trialNumber": 28,
            "roleCurrent": "receiver",
            "marblesSampled": 100,
            "probRed": 0.5,
            "lambda": 5,
            "drawnRed": 24,
            "reportedRed": 29,
            "inferredRed": 60,
            "playerTrialScore": -36,
            "oppTrialScore": 36,
            "playerTotalScore": 6,
            "oppTotalScore": -179,
            "waitTime": 6092.144869544096,
            "responseTime": 1642977131569,
            "catchQuestion": "How many <b class=\"r\">red<\/b> marbles did your opponent report drawing? ",
            "catchKey": -1,
            "catchResponse": -1,
            "catchTime": 1642977053427,
            "trialTime": 0
        },
        {
            "exptPart": "trial",
            "trialNumber": 29,
            "roleCurrent": "sender",
            "marblesSampled": 100,
            "probRed": 0.5,
            "lambda": 5,
            "drawnRed": 52,
            "reportedRed": 100,
            "inferredRed": 94,
            "playerTrialScore": 42,
            "oppTrialScore": -42,
            "playerTotalScore": 48,
            "oppTotalScore": -221,
            "waitTime": 2195.24560182582,
            "responseTime": 1642977201624,
            "catchQuestion": "How many <b class=\"r\">red<\/b> marbles did your opponent report drawing? ",
            "catchKey": -1,
            "catchResponse": -1,
            "catchTime": 1642977053427,
            "trialTime": 0
        },
        {
            "exptPart": "trial",
            "trialNumber": 30,
            "roleCurrent": "receiver",
            "marblesSampled": 100,
            "probRed": 0.5,
            "lambda": 5,
            "drawnRed": 46,
            "reportedRed": 50,
            "inferredRed": 0,
            "playerTrialScore": -46,
            "oppTrialScore": 0,
            "playerTotalScore": 2,
            "oppTotalScore": -221,
            "waitTime": 7319.943919638458,
            "responseTime": 1642977218761,
            "catchQuestion": "How many <b class=\"r\">red<\/b> marbles did your opponent report drawing? ",
            "catchKey": -1,
            "catchResponse": -1,
            "catchTime": 1642977218761,
            "trialTime": 0
        },
        {
            "exptPart": "trial",
            "trialNumber": 31,
            "roleCurrent": "sender",
            "marblesSampled": 100,
            "probRed": 0.5,
            "lambda": 5,
            "drawnRed": 27,
            "reportedRed": 0,
            "inferredRed": 0,
            "playerTrialScore": 0,
            "oppTrialScore": -27,
            "playerTotalScore": 2,
            "oppTotalScore": -248,
            "waitTime": 2301.6054491563964,
            "responseTime": 1642977257901,
            "catchQuestion": "How many <b class=\"r\">red<\/b> marbles did your opponent report drawing? ",
            "catchKey": -1,
            "catchResponse": -1,
            "catchTime": 1642977218761,
            "trialTime": 0
        },
        {
            "exptPart": "trial",
            "trialNumber": 32,
            "roleCurrent": "receiver",
            "marblesSampled": 100,
            "probRed": 0.5,
            "lambda": 5,
            "drawnRed": 39,
            "reportedRed": 44,
            "inferredRed": 0,
            "playerTrialScore": -39,
            "oppTrialScore": 0,
            "playerTotalScore": -37,
            "oppTotalScore": -248,
            "waitTime": 6097.920786263865,
            "responseTime": 1642977274136,
            "catchQuestion": "How many <b class=\"r\">red<\/b> marbles did your opponent report drawing? ",
            "catchKey": -1,
            "catchResponse": -1,
            "catchTime": 1642977218761,
            "trialTime": 0
        },
        {
            "exptPart": "trial",
            "trialNumber": 33,
            "roleCurrent": "sender",
            "marblesSampled": 100,
            "probRed": 0.5,
            "lambda": 5,
            "drawnRed": 26,
            "reportedRed": 0,
            "inferredRed": 0,
            "playerTrialScore": 0,
            "oppTrialScore": -26,
            "playerTotalScore": -37,
            "oppTotalScore": -274,
            "waitTime": 3118.3622549684537,
            "responseTime": 1642977309133,
            "catchQuestion": "How many <b class=\"r\">red<\/b> marbles did your opponent report drawing? ",
            "catchKey": -1,
            "catchResponse": -1,
            "catchTime": 1642977218761,
            "trialTime": 0
        },
        {
            "exptPart": "trial",
            "trialNumber": 34,
            "roleCurrent": "receiver",
            "marblesSampled": 100,
            "probRed": 0.5,
            "lambda": 5,
            "drawnRed": 26,
            "reportedRed": 31,
            "inferredRed": 0,
            "playerTrialScore": -26,
            "oppTrialScore": 0,
            "playerTotalScore": -63,
            "oppTotalScore": -274,
            "waitTime": 5611.759511214539,
            "responseTime": 1642977319219,
            "catchQuestion": "How many <b class=\"r\">red<\/b> marbles did your opponent report drawing? ",
            "catchKey": -1,
            "catchResponse": -1,
            "catchTime": 1642977218761,
            "trialTime": 0
        },
        {
            "exptPart": "trial",
            "trialNumber": 35,
            "roleCurrent": "sender",
            "marblesSampled": 100,
            "probRed": 0.5,
            "lambda": 5,
            "drawnRed": 43,
            "reportedRed": 0,
            "inferredRed": 0,
            "playerTrialScore": 0,
            "oppTrialScore": -43,
            "playerTotalScore": -63,
            "oppTotalScore": -317,
            "waitTime": 2216.179793436893,
            "responseTime": 1642977368435,
            "catchQuestion": "How many <b class=\"r\">red<\/b> marbles did your opponent report drawing? ",
            "catchKey": -1,
            "catchResponse": -1,
            "catchTime": 1642977368435,
            "trialTime": 0
        },
        {
            "exptPart": "trial",
            "trialNumber": 36,
            "roleCurrent": "receiver",
            "marblesSampled": 100,
            "probRed": 0.5,
            "lambda": 5,
            "drawnRed": 61,
            "reportedRed": 68,
            "inferredRed": 0,
            "playerTrialScore": -61,
            "oppTrialScore": 0,
            "playerTotalScore": -124,
            "oppTotalScore": -317,
            "waitTime": 5855.6074638853825,
            "responseTime": 1642977386506,
            "catchQuestion": "How many <b class=\"r\">red<\/b> marbles did your opponent report drawing? ",
            "catchKey": -1,
            "catchResponse": -1,
            "catchTime": 1642977368435,
            "trialTime": 0
        },
        {
            "exptPart": "trial",
            "trialNumber": 37,
            "roleCurrent": "sender",
            "marblesSampled": 100,
            "probRed": 0.5,
            "lambda": 5,
            "drawnRed": 49,
            "reportedRed": 100,
            "inferredRed": 96,
            "playerTrialScore": 47,
            "oppTrialScore": -47,
            "playerTotalScore": -77,
            "oppTotalScore": -364,
            "waitTime": 2826.2960563477245,
            "responseTime": 1642977435630,
            "catchQuestion": "How many <b class=\"r\">red<\/b> marbles did your opponent report drawing? ",
            "catchKey": -1,
            "catchResponse": -1,
            "catchTime": 1642977368435,
            "trialTime": 0
        },
        {
            "exptPart": "trial",
            "trialNumber": 38,
            "roleCurrent": "receiver",
            "marblesSampled": 100,
            "probRed": 0.5,
            "lambda": 5,
            "drawnRed": 65,
            "reportedRed": 69,
            "inferredRed": 0,
            "playerTrialScore": -65,
            "oppTrialScore": 0,
            "playerTotalScore": -142,
            "oppTotalScore": -364,
            "waitTime": 7052.962825409944,
            "responseTime": 1642977451931,
            "catchQuestion": "How many <b class=\"r\">red<\/b> marbles did your opponent report drawing? ",
            "catchKey": -1,
            "catchResponse": -1,
            "catchTime": 1642977368435,
            "trialTime": 0
        },
        {
            "exptPart": "trial",
            "trialNumber": 39,
            "roleCurrent": "sender",
            "marblesSampled": 100,
            "probRed": 0.5,
            "lambda": 5,
            "drawnRed": 40,
            "reportedRed": 100,
            "inferredRed": 96,
            "playerTrialScore": 56,
            "oppTrialScore": -56,
            "playerTotalScore": -86,
            "oppTotalScore": -420,
            "waitTime": 2280.641277044055,
            "responseTime": 1642977512477,
            "catchQuestion": "How many <b class=\"r\">red<\/b> marbles did your opponent report drawing? ",
            "catchKey": -1,
            "catchResponse": -1,
            "catchTime": 1642977368435,
            "trialTime": 0
        },
        {
            "exptPart": "trial",
            "trialNumber": 40,
            "roleCurrent": "receiver",
            "marblesSampled": 100,
            "probRed": 0.5,
            "lambda": 5,
            "drawnRed": 72,
            "reportedRed": 77,
            "inferredRed": 0,
            "playerTrialScore": -72,
            "oppTrialScore": 0,
            "playerTotalScore": -158,
            "oppTotalScore": -420,
            "waitTime": 6770.706413365857,
            "responseTime": 1642977526604,
            "catchQuestion": "How many <b class=\"r\">red<\/b> marbles did your opponent report drawing? ",
            "catchKey": -1,
            "catchResponse": -1,
            "catchTime": 1642977526604,
            "trialTime": 0
        },
        {
            "exptPart": "trial",
            "trialNumber": 41,
            "roleCurrent": "sender",
            "marblesSampled": 100,
            "probRed": 0.5,
            "lambda": 5,
            "drawnRed": 68,
            "reportedRed": 59,
            "inferredRed": 56,
            "playerTrialScore": 0,
            "oppTrialScore": -12,
            "playerTotalScore": -158,
            "oppTotalScore": -432,
            "waitTime": 2332.3070327416517,
            "responseTime": 1642977595974,
            "catchQuestion": "How many <b class=\"r\">red<\/b> marbles did your opponent report drawing? ",
            "catchKey": -1,
            "catchResponse": -1,
            "catchTime": 1642977526604,
            "trialTime": 0
        },
        {
            "exptPart": "trial",
            "trialNumber": 42,
            "roleCurrent": "receiver",
            "marblesSampled": 100,
            "probRed": 0.5,
            "lambda": 5,
            "drawnRed": 42,
            "reportedRed": 46,
            "inferredRed": 50,
            "playerTrialScore": -8,
            "oppTrialScore": 8,
            "playerTotalScore": -166,
            "oppTotalScore": -424,
            "waitTime": 7317.61246428422,
            "responseTime": 1642977613216,
            "catchQuestion": "How many <b class=\"r\">red<\/b> marbles did your opponent report drawing? ",
            "catchKey": 46,
            "catchResponse": 42,
            "catchTime": 1642977613216,
            "trialTime": 0
        },
        {
            "exptPart": "trial",
            "trialNumber": 43,
            "roleCurrent": "sender",
            "marblesSampled": 100,
            "probRed": 0.5,
            "lambda": 5,
            "drawnRed": 42,
            "reportedRed": 42,
            "inferredRed": 38,
            "playerTrialScore": 0,
            "oppTrialScore": -4,
            "playerTotalScore": -166,
            "oppTotalScore": -428,
            "waitTime": 2728.0390674298187,
            "responseTime": 1642977681443,
            "catchQuestion": "How many <b class=\"r\">red<\/b> marbles did your opponent report drawing? ",
            "catchKey": -1,
            "catchResponse": -1,
            "catchTime": 1642977613216,
            "trialTime": 0
        },
        {
            "exptPart": "trial",
            "trialNumber": 44,
            "roleCurrent": "receiver",
            "marblesSampled": 100,
            "probRed": 0.5,
            "lambda": 5,
            "drawnRed": 53,
            "reportedRed": 57,
            "inferredRed": 50,
            "playerTrialScore": -3,
            "oppTrialScore": 0,
            "playerTotalScore": -169,
            "oppTotalScore": -428,
            "waitTime": 7363.864634055664,
            "responseTime": 1642977694633,
            "catchQuestion": "How many <b class=\"r\">red<\/b> marbles did your opponent report drawing? ",
            "catchKey": 57,
            "catchResponse": 57,
            "catchTime": 1642977694633,
            "trialTime": 0
        },
        {
            "exptPart": "trial",
            "trialNumber": 45,
            "roleCurrent": "sender",
            "marblesSampled": 100,
            "probRed": 0.5,
            "lambda": 5,
            "drawnRed": 34,
            "reportedRed": 41,
            "inferredRed": 36,
            "playerTrialScore": 2,
            "oppTrialScore": -2,
            "playerTotalScore": -167,
            "oppTotalScore": -430,
            "waitTime": 3120.81088781908,
            "responseTime": 1642977745470,
            "catchQuestion": "How many <b class=\"r\">red<\/b> marbles did your opponent report drawing? ",
            "catchKey": -1,
            "catchResponse": -1,
            "catchTime": 1642977745470,
            "trialTime": 0
        },
        {
            "exptPart": "trial",
            "trialNumber": 46,
            "roleCurrent": "receiver",
            "marblesSampled": 100,
            "probRed": 0.5,
            "lambda": 5,
            "drawnRed": 68,
            "reportedRed": 77,
            "inferredRed": 0,
            "playerTrialScore": -68,
            "oppTrialScore": 0,
            "playerTotalScore": -235,
            "oppTotalScore": -430,
            "waitTime": 5809.454190981836,
            "responseTime": 1642977799500,
            "catchQuestion": "How many <b class=\"r\">red<\/b> marbles did your opponent report drawing? ",
            "catchKey": -1,
            "catchResponse": -1,
            "catchTime": 1642977745470,
            "trialTime": 0
        },
        {
            "exptPart": "trial",
            "trialNumber": 47,
            "roleCurrent": "sender",
            "marblesSampled": 100,
            "probRed": 0.5,
            "lambda": 5,
            "drawnRed": 82,
            "reportedRed": 85,
            "inferredRed": 77,
            "playerTrialScore": 0,
            "oppTrialScore": -5,
            "playerTotalScore": -235,
            "oppTotalScore": -435,
            "waitTime": 2607.9581013066836,
            "responseTime": 1642977814610,
            "catchQuestion": "How many <b class=\"r\">red<\/b> marbles did your opponent report drawing? ",
            "catchKey": -1,
            "catchResponse": -1,
            "catchTime": 1642977745470,
            "trialTime": 0
        },
        {
            "exptPart": "trial",
            "trialNumber": 48,
            "roleCurrent": "receiver",
            "marblesSampled": 100,
            "probRed": 0.5,
            "lambda": 5,
            "drawnRed": 40,
            "reportedRed": 49,
            "inferredRed": 0,
            "playerTrialScore": -40,
            "oppTrialScore": 0,
            "playerTotalScore": -275,
            "oppTotalScore": -435,
            "waitTime": 6509.067916578734,
            "responseTime": 1642977829908,
            "catchQuestion": "How many <b class=\"r\">red<\/b> marbles did your opponent report drawing? ",
            "catchKey": -1,
            "catchResponse": -1,
            "catchTime": 1642977745470,
            "trialTime": 0
        },
        {
            "exptPart": "trial",
            "trialNumber": 49,
            "roleCurrent": "sender",
            "marblesSampled": 100,
            "probRed": 0.5,
            "lambda": 5,
            "drawnRed": 61,
            "reportedRed": 51,
            "inferredRed": 43,
            "playerTrialScore": 0,
            "oppTrialScore": -18,
            "playerTotalScore": -275,
            "oppTotalScore": -453,
            "waitTime": 2123.9997429459654,
            "responseTime": 1642977908734,
            "catchQuestion": "How many <b class=\"r\">red<\/b> marbles did your opponent report drawing? ",
            "catchKey": -1,
            "catchResponse": -1,
            "catchTime": 1642977745470,
            "trialTime": 0
        },
        {
            "exptPart": "trial",
            "trialNumber": 50,
            "roleCurrent": "receiver",
            "marblesSampled": 100,
            "probRed": 0.5,
            "lambda": 5,
            "drawnRed": 36,
            "reportedRed": 41,
            "inferredRed": 0,
            "playerTrialScore": -36,
            "oppTrialScore": 0,
            "playerTotalScore": -311,
            "oppTotalScore": -453,
            "waitTime": 7110.787500462532,
            "responseTime": 1642977922733,
            "catchQuestion": "How many <b class=\"r\">red<\/b> marbles did your opponent report drawing? ",
            "catchKey": -1,
            "catchResponse": -1,
            "catchTime": 1642977922733,
            "trialTime": 0
        },
        {
            "exptPart": "trial",
            "trialNumber": 51,
            "roleCurrent": "sender",
            "marblesSampled": 100,
            "probRed": 0.5,
            "lambda": 5,
            "drawnRed": 34,
            "reportedRed": 55,
            "inferredRed": 53,
            "playerTrialScore": 19,
            "oppTrialScore": -19,
            "playerTotalScore": -292,
            "oppTotalScore": -472,
            "waitTime": 2606.85916316903,
            "responseTime": 1642977962177,
            "catchQuestion": "How many <b class=\"r\">red<\/b> marbles did you actually draw (before any changes)? ",
            "catchKey": 34,
            "catchResponse": 34,
            "catchTime": 1642977962177,
            "trialTime": 0
        },
        {
            "exptPart": "trial",
            "trialNumber": 52,
            "roleCurrent": "receiver",
            "marblesSampled": 100,
            "probRed": 0.5,
            "lambda": 5,
            "drawnRed": 47,
            "reportedRed": 48,
            "inferredRed": 0,
            "playerTrialScore": -47,
            "oppTrialScore": 0,
            "playerTotalScore": -339,
            "oppTotalScore": -472,
            "waitTime": 7219.648447760299,
            "responseTime": 1642977979260,
            "catchQuestion": "How many <b class=\"r\">red<\/b> marbles did you actually draw (before any changes)? ",
            "catchKey": -1,
            "catchResponse": -1,
            "catchTime": 1642977962177,
            "trialTime": 0
        },
        {
            "exptPart": "trial",
            "trialNumber": 53,
            "roleCurrent": "sender",
            "marblesSampled": 100,
            "probRed": 0.5,
            "lambda": 5,
            "drawnRed": 58,
            "reportedRed": 61,
            "inferredRed": 55,
            "playerTrialScore": 0,
            "oppTrialScore": -3,
            "playerTotalScore": -339,
            "oppTotalScore": -475,
            "waitTime": 2857.4741161738075,
            "responseTime": 1642978001765,
            "catchQuestion": "How many <b class=\"r\">red<\/b> marbles did you actually draw (before any changes)? ",
            "catchKey": -1,
            "catchResponse": -1,
            "catchTime": 1642977962177,
            "trialTime": 0
        },
        {
            "exptPart": "trial",
            "trialNumber": 54,
            "roleCurrent": "receiver",
            "marblesSampled": 100,
            "probRed": 0.5,
            "lambda": 5,
            "drawnRed": 10,
            "reportedRed": 15,
            "inferredRed": 1,
            "playerTrialScore": -9,
            "oppTrialScore": 0,
            "playerTotalScore": -348,
            "oppTotalScore": -475,
            "waitTime": 6190.662343230381,
            "responseTime": 1642978011729,
            "catchQuestion": "How many <b class=\"r\">red<\/b> marbles did you actually draw (before any changes)? ",
            "catchKey": -1,
            "catchResponse": -1,
            "catchTime": 1642977962177,
            "trialTime": 0
        },
        {
            "exptPart": "trial",
            "trialNumber": 55,
            "roleCurrent": "sender",
            "marblesSampled": 100,
            "probRed": 0.5,
            "lambda": 5,
            "drawnRed": 56,
            "reportedRed": 56,
            "inferredRed": 53,
            "playerTrialScore": 0,
            "oppTrialScore": -3,
            "playerTotalScore": -348,
            "oppTotalScore": -478,
            "waitTime": 2585.9036561453677,
            "responseTime": 1642978044821,
            "catchQuestion": "How many <b class=\"r\">red<\/b> marbles did you actually draw (before any changes)? ",
            "catchKey": -1,
            "catchResponse": -1,
            "catchTime": 1642978044821,
            "trialTime": 0
        },
        {
            "exptPart": "trial",
            "trialNumber": 56,
            "roleCurrent": "receiver",
            "marblesSampled": 100,
            "probRed": 0.5,
            "lambda": 5,
            "drawnRed": 64,
            "reportedRed": 69,
            "inferredRed": 0,
            "playerTrialScore": -64,
            "oppTrialScore": 0,
            "playerTotalScore": -412,
            "oppTotalScore": -478,
            "waitTime": 5660.745327557537,
            "responseTime": 1642978064261,
            "catchQuestion": "How many <b class=\"r\">red<\/b> marbles did you actually draw (before any changes)? ",
            "catchKey": -1,
            "catchResponse": -1,
            "catchTime": 1642978044821,
            "trialTime": 0
        },
        {
            "exptPart": "trial",
            "trialNumber": 57,
            "roleCurrent": "sender",
            "marblesSampled": 100,
            "probRed": 0.5,
            "lambda": 5,
            "drawnRed": 54,
            "reportedRed": 50,
            "inferredRed": 42,
            "playerTrialScore": 0,
            "oppTrialScore": -12,
            "playerTotalScore": -412,
            "oppTotalScore": -490,
            "waitTime": 2146.4125483205326,
            "responseTime": 1642978102526,
            "catchQuestion": "How many <b class=\"r\">red<\/b> marbles did you actually draw (before any changes)? ",
            "catchKey": -1,
            "catchResponse": -1,
            "catchTime": 1642978044821,
            "trialTime": 0
        },
        {
            "exptPart": "trial",
            "trialNumber": 58,
            "roleCurrent": "receiver",
            "marblesSampled": 100,
            "probRed": 0.5,
            "lambda": 5,
            "drawnRed": 75,
            "reportedRed": 79,
            "inferredRed": 0,
            "playerTrialScore": -75,
            "oppTrialScore": 0,
            "playerTotalScore": -487,
            "oppTotalScore": -490,
            "waitTime": 5138.990540252866,
            "responseTime": 1642978115203,
            "catchQuestion": "How many <b class=\"r\">red<\/b> marbles did you actually draw (before any changes)? ",
            "catchKey": -1,
            "catchResponse": -1,
            "catchTime": 1642978044821,
            "trialTime": 0
        },
        {
            "exptPart": "trial",
            "trialNumber": 59,
            "roleCurrent": "sender",
            "marblesSampled": 100,
            "probRed": 0.5,
            "lambda": 5,
            "drawnRed": 50,
            "reportedRed": 48,
            "inferredRed": 43,
            "playerTrialScore": 0,
            "oppTrialScore": -7,
            "playerTotalScore": -487,
            "oppTotalScore": -497,
            "waitTime": 2230.1208084829937,
            "responseTime": 1642978139994,
            "catchQuestion": "How many <b class=\"r\">red<\/b> marbles did you actually draw (before any changes)? ",
            "catchKey": -1,
            "catchResponse": -1,
            "catchTime": 1642978044821,
            "trialTime": 0
        },
        {
            "exptPart": "trial",
            "trialNumber": 60,
            "roleCurrent": "receiver",
            "marblesSampled": 100,
            "probRed": 0.5,
            "lambda": 5,
            "drawnRed": 49,
            "reportedRed": 53,
            "inferredRed": 0,
            "playerTrialScore": -49,
            "oppTrialScore": 0,
            "playerTotalScore": -536,
            "oppTotalScore": -497,
            "waitTime": 6320.272434878034,
            "responseTime": 1642978152753,
            "catchQuestion": "How many <b class=\"r\">red<\/b> marbles did you actually draw (before any changes)? ",
            "catchKey": -1,
            "catchResponse": -1,
            "catchTime": 1642978152753,
            "trialTime": 0
        },
        {
            "exptPart": "trial",
            "trialNumber": 61,
            "roleCurrent": "sender",
            "marblesSampled": 100,
            "probRed": 0.5,
            "lambda": 5,
            "drawnRed": 69,
            "reportedRed": 50,
            "inferredRed": 44,
            "playerTrialScore": 0,
            "oppTrialScore": -25,
            "playerTotalScore": -536,
            "oppTotalScore": -522,
            "waitTime": 2337.705915244634,
            "responseTime": 1642978228096,
            "catchQuestion": "How many <b class=\"r\">red<\/b> marbles did you actually draw (before any changes)? ",
            "catchKey": -1,
            "catchResponse": -1,
            "catchTime": 1642978152753,
            "trialTime": 0
        },
        {
            "exptPart": "trial",
            "trialNumber": 62,
            "roleCurrent": "receiver",
            "marblesSampled": 100,
            "probRed": 0.5,
            "lambda": 5,
            "drawnRed": 51,
            "reportedRed": 57,
            "inferredRed": 48,
            "playerTrialScore": -3,
            "oppTrialScore": 0,
            "playerTotalScore": -539,
            "oppTotalScore": -522,
            "waitTime": 5506.694060912529,
            "responseTime": 1642978248631,
            "catchQuestion": "How many <b class=\"r\">red<\/b> marbles did you actually draw (before any changes)? ",
            "catchKey": -1,
            "catchResponse": -1,
            "catchTime": 1642978152753,
            "trialTime": 0
        },
        {
            "exptPart": "trial",
            "trialNumber": 63,
            "roleCurrent": "sender",
            "marblesSampled": 100,
            "probRed": 0.5,
            "lambda": 5,
            "drawnRed": 21,
            "reportedRed": 50,
            "inferredRed": 49,
            "playerTrialScore": 28,
            "oppTrialScore": -28,
            "playerTotalScore": -511,
            "oppTotalScore": -550,
            "waitTime": 2681.8255240276167,
            "responseTime": 1642978359784,
            "catchQuestion": "How many <b class=\"r\">red<\/b> marbles did you actually draw (before any changes)? ",
            "catchKey": -1,
            "catchResponse": -1,
            "catchTime": 1642978152753,
            "trialTime": 0
        },
        {
            "exptPart": "trial",
            "trialNumber": 64,
            "roleCurrent": "receiver",
            "marblesSampled": 100,
            "probRed": 0.5,
            "lambda": 5,
            "drawnRed": 39,
            "reportedRed": 46,
            "inferredRed": 50,
            "playerTrialScore": -11,
            "oppTrialScore": 11,
            "playerTotalScore": -522,
            "oppTotalScore": -539,
            "waitTime": 6017.431034944697,
            "responseTime": 1642978372847,
            "catchQuestion": "How many <b class=\"r\">red<\/b> marbles did you actually draw (before any changes)? ",
            "catchKey": -1,
            "catchResponse": -1,
            "catchTime": 1642978152753,
            "trialTime": 0
        },
        {
            "exptPart": "trial",
            "trialNumber": 65,
            "roleCurrent": "sender",
            "marblesSampled": 100,
            "probRed": 0.5,
            "lambda": 5,
            "drawnRed": 58,
            "reportedRed": 58,
            "inferredRed": 50,
            "playerTrialScore": 0,
            "oppTrialScore": -8,
            "playerTotalScore": -522,
            "oppTotalScore": -547,
            "waitTime": 2595.4527831798323,
            "responseTime": 1642978422371,
            "catchQuestion": "How many <b class=\"r\">red<\/b> marbles did you actually draw (before any changes)? ",
            "catchKey": -1,
            "catchResponse": -1,
            "catchTime": 1642978422371,
            "trialTime": 0
        },
        {
            "exptPart": "trial",
            "trialNumber": 66,
            "roleCurrent": "receiver",
            "marblesSampled": 100,
            "probRed": 0.5,
            "lambda": 5,
            "drawnRed": 55,
            "reportedRed": 59,
            "inferredRed": 49,
            "playerTrialScore": -6,
            "oppTrialScore": 0,
            "playerTotalScore": -528,
            "oppTotalScore": -547,
            "waitTime": 6574.022002699903,
            "responseTime": 1642978450265,
            "catchQuestion": "How many <b class=\"r\">red<\/b> marbles did you actually draw (before any changes)? ",
            "catchKey": -1,
            "catchResponse": -1,
            "catchTime": 1642978422371,
            "trialTime": 0
        },
        {
            "exptPart": "trial",
            "trialNumber": 67,
            "roleCurrent": "sender",
            "marblesSampled": 100,
            "probRed": 0.5,
            "lambda": 5,
            "drawnRed": 48,
            "reportedRed": 0,
            "inferredRed": 0,
            "playerTrialScore": 0,
            "oppTrialScore": -48,
            "playerTotalScore": -528,
            "oppTotalScore": -595,
            "waitTime": 2464.1631127970186,
            "responseTime": 1642978498597,
            "catchQuestion": "How many <b class=\"r\">red<\/b> marbles did you actually draw (before any changes)? ",
            "catchKey": -1,
            "catchResponse": -1,
            "catchTime": 1642978422371,
            "trialTime": 0
        },
        {
            "exptPart": "trial",
            "trialNumber": 68,
            "roleCurrent": "receiver",
            "marblesSampled": 100,
            "probRed": 0.5,
            "lambda": 5,
            "drawnRed": 39,
            "reportedRed": 44,
            "inferredRed": 22,
            "playerTrialScore": -17,
            "oppTrialScore": 0,
            "playerTotalScore": -545,
            "oppTotalScore": -595,
            "waitTime": 6223.466968238443,
            "responseTime": 1642978509630,
            "catchQuestion": "How many <b class=\"r\">red<\/b> marbles did you actually draw (before any changes)? ",
            "catchKey": -1,
            "catchResponse": -1,
            "catchTime": 1642978422371,
            "trialTime": 0
        },
        {
            "exptPart": "trial",
            "trialNumber": 69,
            "roleCurrent": "sender",
            "marblesSampled": 100,
            "probRed": 0.5,
            "lambda": 5,
            "drawnRed": 84,
            "reportedRed": 0,
            "inferredRed": 0,
            "playerTrialScore": 0,
            "oppTrialScore": -84,
            "playerTotalScore": -545,
            "oppTotalScore": -679,
            "waitTime": 2564.7188623608945,
            "responseTime": 1642978593188,
            "catchQuestion": "How many <b class=\"r\">red<\/b> marbles did you actually draw (before any changes)? ",
            "catchKey": -1,
            "catchResponse": -1,
            "catchTime": 1642978422371,
            "trialTime": 0
        },
        {
            "exptPart": "trial",
            "trialNumber": 70,
            "roleCurrent": "receiver",
            "marblesSampled": 100,
            "probRed": 0.5,
            "lambda": 5,
            "drawnRed": 35,
            "reportedRed": 38,
            "inferredRed": 19,
            "playerTrialScore": -16,
            "oppTrialScore": 0,
            "playerTotalScore": -561,
            "oppTotalScore": -679,
            "waitTime": 5517.187887426371,
            "responseTime": 1642978603941,
            "catchQuestion": "How many <b class=\"r\">red<\/b> marbles did you actually draw (before any changes)? ",
            "catchKey": -1,
            "catchResponse": -1,
            "catchTime": 1642978603941,
            "trialTime": 0
        },
        {
            "exptPart": "trial",
            "trialNumber": 71,
            "roleCurrent": "sender",
            "marblesSampled": 100,
            "probRed": 0.5,
            "lambda": 5,
            "drawnRed": 39,
            "reportedRed": 50,
            "inferredRed": 43,
            "playerTrialScore": 4,
            "oppTrialScore": -4,
            "playerTotalScore": -557,
            "oppTotalScore": -683,
            "waitTime": 2358.1753359217428,
            "responseTime": 1642978658486,
            "catchQuestion": "How many <b class=\"r\">red<\/b> marbles did you actually draw (before any changes)? ",
            "catchKey": -1,
            "catchResponse": -1,
            "catchTime": 1642978603941,
            "trialTime": 0
        },
        {
            "exptPart": "trial",
            "trialNumber": 72,
            "roleCurrent": "receiver",
            "marblesSampled": 100,
            "probRed": 0.5,
            "lambda": 5,
            "drawnRed": 55,
            "reportedRed": 59,
            "inferredRed": 0,
            "playerTrialScore": -55,
            "oppTrialScore": 0,
            "playerTotalScore": -612,
            "oppTotalScore": -683,
            "waitTime": 6296.274563537786,
            "responseTime": 1642978668014,
            "catchQuestion": "How many <b class=\"r\">red<\/b> marbles did you actually draw (before any changes)? ",
            "catchKey": -1,
            "catchResponse": -1,
            "catchTime": 1642978603941,
            "trialTime": 0
        },
        {
            "exptPart": "trial",
            "trialNumber": 73,
            "roleCurrent": "sender",
            "marblesSampled": 100,
            "probRed": 0.5,
            "lambda": 5,
            "drawnRed": 41,
            "reportedRed": 50,
            "inferredRed": 46,
            "playerTrialScore": 5,
            "oppTrialScore": -5,
            "playerTotalScore": -607,
            "oppTotalScore": -688,
            "waitTime": 2431.392021345726,
            "responseTime": 1642978692429,
            "catchQuestion": "How many <b class=\"r\">red<\/b> marbles did you actually draw (before any changes)? ",
            "catchKey": 41,
            "catchResponse": 43,
            "catchTime": 1642978692429,
            "trialTime": 0
        },
        {
            "exptPart": "trial",
            "trialNumber": 74,
            "roleCurrent": "receiver",
            "marblesSampled": 100,
            "probRed": 0.5,
            "lambda": 5,
            "drawnRed": 9,
            "reportedRed": 13,
            "inferredRed": 1,
            "playerTrialScore": -8,
            "oppTrialScore": 0,
            "playerTotalScore": -615,
            "oppTotalScore": -688,
            "waitTime": 7052.080998228888,
            "responseTime": 1642978715110,
            "catchQuestion": "How many <b class=\"r\">red<\/b> marbles did your opponent report drawing? ",
            "catchKey": 13,
            "catchResponse": 13,
            "catchTime": 1642978715110,
            "trialTime": 0
        },
        {
            "exptPart": "trial",
            "trialNumber": 75,
            "roleCurrent": "sender",
            "marblesSampled": 100,
            "probRed": 0.5,
            "lambda": 5,
            "drawnRed": 64,
            "reportedRed": 50,
            "inferredRed": 46,
            "playerTrialScore": 0,
            "oppTrialScore": -18,
            "playerTotalScore": -615,
            "oppTotalScore": -706,
            "waitTime": 2865.78346541128,
            "responseTime": 1642978769163,
            "catchQuestion": "How many <b class=\"r\">red<\/b> marbles did your opponent report drawing? ",
            "catchKey": -1,
            "catchResponse": -1,
            "catchTime": 1642978769163,
            "trialTime": 0
        },
        {
            "exptPart": "trial",
            "trialNumber": 76,
            "roleCurrent": "receiver",
            "marblesSampled": 100,
            "probRed": 0.5,
            "lambda": 5,
            "drawnRed": 63,
            "reportedRed": 70,
            "inferredRed": 1,
            "playerTrialScore": -62,
            "oppTrialScore": 0,
            "playerTotalScore": -677,
            "oppTotalScore": -706,
            "waitTime": 5590.707516118768,
            "responseTime": 1642978782168,
            "catchQuestion": "How many <b class=\"r\">red<\/b> marbles did your opponent report drawing? ",
            "catchKey": -1,
            "catchResponse": -1,
            "catchTime": 1642978769163,
            "trialTime": 0
        },
        {
            "exptPart": "trial",
            "trialNumber": 77,
            "roleCurrent": "sender",
            "marblesSampled": 100,
            "probRed": 0.5,
            "lambda": 5,
            "drawnRed": 77,
            "reportedRed": 50,
            "inferredRed": 46,
            "playerTrialScore": 0,
            "oppTrialScore": -31,
            "playerTotalScore": -677,
            "oppTotalScore": -737,
            "waitTime": 2257.4045907836735,
            "responseTime": 1642978819161,
            "catchQuestion": "How many <b class=\"r\">red<\/b> marbles did your opponent report drawing? ",
            "catchKey": -1,
            "catchResponse": -1,
            "catchTime": 1642978769163,
            "trialTime": 0
        },
        {
            "exptPart": "trial",
            "trialNumber": 78,
            "roleCurrent": "receiver",
            "marblesSampled": 100,
            "probRed": 0.5,
            "lambda": 5,
            "drawnRed": 58,
            "reportedRed": 66,
            "inferredRed": 1,
            "playerTrialScore": -57,
            "oppTrialScore": 0,
            "playerTotalScore": -734,
            "oppTotalScore": -737,
            "waitTime": 6169.581904618502,
            "responseTime": 1642978829358,
            "catchQuestion": "How many <b class=\"r\">red<\/b> marbles did your opponent report drawing? ",
            "catchKey": -1,
            "catchResponse": -1,
            "catchTime": 1642978769163,
            "trialTime": 0
        },
        {
            "exptPart": "trial",
            "trialNumber": 79,
            "roleCurrent": "sender",
            "marblesSampled": 100,
            "probRed": 0.5,
            "lambda": 5,
            "drawnRed": 38,
            "reportedRed": 50,
            "inferredRed": 44,
            "playerTrialScore": 6,
            "oppTrialScore": -6,
            "playerTotalScore": -728,
            "oppTotalScore": -743,
            "waitTime": 2093.2158243796257,
            "responseTime": 1642978858490,
            "catchQuestion": "How many <b class=\"r\">red<\/b> marbles did your opponent report drawing? ",
            "catchKey": -1,
            "catchResponse": -1,
            "catchTime": 1642978769163,
            "trialTime": 0
        },
        {
            "exptPart": "trial",
            "trialNumber": 80,
            "roleCurrent": "receiver",
            "marblesSampled": 100,
            "probRed": 0.5,
            "lambda": 5,
            "drawnRed": 8,
            "reportedRed": 12,
            "inferredRed": 1,
            "playerTrialScore": -7,
            "oppTrialScore": 0,
            "playerTotalScore": -735,
            "oppTotalScore": -743,
            "waitTime": 5321.372005364443,
            "responseTime": 1642978869208,
            "catchQuestion": "How many <b class=\"r\">red<\/b> marbles did your opponent report drawing? ",
            "catchKey": -1,
            "catchResponse": -1,
            "catchTime": 1642978869208,
            "trialTime": 0
        },
        {
            "exptPart": "trial",
            "trialNumber": 81,
            "roleCurrent": "sender",
            "marblesSampled": 100,
            "probRed": 0.5,
            "lambda": 5,
            "drawnRed": 65,
            "reportedRed": 50,
            "inferredRed": 44,
            "playerTrialScore": 0,
            "oppTrialScore": -21,
            "playerTotalScore": -735,
            "oppTotalScore": -764,
            "waitTime": 2603.1838400547877,
            "responseTime": 1642978907939,
            "catchQuestion": "How many <b class=\"r\">red<\/b> marbles did your opponent report drawing? ",
            "catchKey": -1,
            "catchResponse": -1,
            "catchTime": 1642978869208,
            "trialTime": 0
        },
        {
            "exptPart": "trial",
            "trialNumber": 82,
            "roleCurrent": "receiver",
            "marblesSampled": 100,
            "probRed": 0.5,
            "lambda": 5,
            "drawnRed": 46,
            "reportedRed": 51,
            "inferredRed": 1,
            "playerTrialScore": -45,
            "oppTrialScore": 0,
            "playerTotalScore": -780,
            "oppTotalScore": -764,
            "waitTime": 5680.486772591481,
            "responseTime": 1642978918398,
            "catchQuestion": "How many <b class=\"r\">red<\/b> marbles did your opponent report drawing? ",
            "catchKey": -1,
            "catchResponse": -1,
            "catchTime": 1642978869208,
            "trialTime": 0
        },
        {
            "exptPart": "trial",
            "trialNumber": 83,
            "roleCurrent": "sender",
            "marblesSampled": 100,
            "probRed": 0.5,
            "lambda": 5,
            "drawnRed": 73,
            "reportedRed": 70,
            "inferredRed": 61,
            "playerTrialScore": 0,
            "oppTrialScore": -12,
            "playerTotalScore": -780,
            "oppTotalScore": -776,
            "waitTime": 3012.6697980801664,
            "responseTime": 1642978935417,
            "catchQuestion": "How many <b class=\"r\">red<\/b> marbles did your opponent report drawing? ",
            "catchKey": -1,
            "catchResponse": -1,
            "catchTime": 1642978869208,
            "trialTime": 0
        },
        {
            "exptPart": "trial",
            "trialNumber": 84,
            "roleCurrent": "receiver",
            "marblesSampled": 100,
            "probRed": 0.5,
            "lambda": 5,
            "drawnRed": 32,
            "reportedRed": 37,
            "inferredRed": 1,
            "playerTrialScore": -31,
            "oppTrialScore": 0,
            "playerTotalScore": -811,
            "oppTotalScore": -776,
            "waitTime": 5824.202517192599,
            "responseTime": 1642978946706,
            "catchQuestion": "How many <b class=\"r\">red<\/b> marbles did your opponent report drawing? ",
            "catchKey": -1,
            "catchResponse": -1,
            "catchTime": 1642978869208,
            "trialTime": 0
        },
        {
            "exptPart": "trial",
            "trialNumber": 85,
            "roleCurrent": "sender",
            "marblesSampled": 100,
            "probRed": 0.5,
            "lambda": 5,
            "drawnRed": 69,
            "reportedRed": 60,
            "inferredRed": 54,
            "playerTrialScore": 0,
            "oppTrialScore": -15,
            "playerTotalScore": -811,
            "oppTotalScore": -791,
            "waitTime": 2504.4868040109104,
            "responseTime": 1642978975545,
            "catchQuestion": "How many <b class=\"r\">red<\/b> marbles did your opponent report drawing? ",
            "catchKey": -1,
            "catchResponse": -1,
            "catchTime": 1642978975545,
            "trialTime": 0
        },
        {
            "exptPart": "trial",
            "trialNumber": 86,
            "roleCurrent": "receiver",
            "marblesSampled": 100,
            "probRed": 0.5,
            "lambda": 5,
            "drawnRed": 58,
            "reportedRed": 63,
            "inferredRed": 1,
            "playerTrialScore": -57,
            "oppTrialScore": 0,
            "playerTotalScore": -868,
            "oppTotalScore": -791,
            "waitTime": 5205.860220183018,
            "responseTime": 1642978999491,
            "catchQuestion": "How many <b class=\"r\">red<\/b> marbles did your opponent report drawing? ",
            "catchKey": -1,
            "catchResponse": -1,
            "catchTime": 1642978975545,
            "trialTime": 0
        },
        {
            "exptPart": "trial",
            "trialNumber": 87,
            "roleCurrent": "sender",
            "marblesSampled": 100,
            "probRed": 0.5,
            "lambda": 5,
            "drawnRed": 80,
            "reportedRed": 80,
            "inferredRed": 76,
            "playerTrialScore": 0,
            "oppTrialScore": -4,
            "playerTotalScore": -868,
            "oppTotalScore": -795,
            "waitTime": 2144.6424431170853,
            "responseTime": 1642979016134,
            "catchQuestion": "How many <b class=\"r\">red<\/b> marbles did your opponent report drawing? ",
            "catchKey": -1,
            "catchResponse": -1,
            "catchTime": 1642978975545,
            "trialTime": 0
        },
        {
            "exptPart": "trial",
            "trialNumber": 88,
            "roleCurrent": "receiver",
            "marblesSampled": 100,
            "probRed": 0.5,
            "lambda": 5,
            "drawnRed": 70,
            "reportedRed": 74,
            "inferredRed": 1,
            "playerTrialScore": -69,
            "oppTrialScore": 0,
            "playerTotalScore": -937,
            "oppTotalScore": -795,
            "waitTime": 6571.768025669563,
            "responseTime": 1642979027499,
            "catchQuestion": "How many <b class=\"r\">red<\/b> marbles did your opponent report drawing? ",
            "catchKey": 74,
            "catchResponse": 78,
            "catchTime": 1642979027499,
            "trialTime": 0
        },
        {
            "exptPart": "trial",
            "trialNumber": 89,
            "roleCurrent": "sender",
            "marblesSampled": 100,
            "probRed": 0.5,
            "lambda": 5,
            "drawnRed": 31,
            "reportedRed": 50,
            "inferredRed": 48,
            "playerTrialScore": 17,
            "oppTrialScore": -17,
            "playerTotalScore": -920,
            "oppTotalScore": -812,
            "waitTime": 3156.873885739075,
            "responseTime": 1642979077117,
            "catchQuestion": "How many <b class=\"r\">red<\/b> marbles did your opponent report drawing? ",
            "catchKey": -1,
            "catchResponse": -1,
            "catchTime": 1642979027499,
            "trialTime": 0
        },
        {
            "exptPart": "trial",
            "trialNumber": 90,
            "roleCurrent": "receiver",
            "marblesSampled": 100,
            "probRed": 0.5,
            "lambda": 5,
            "drawnRed": 32,
            "reportedRed": 37,
            "inferredRed": 1,
            "playerTrialScore": -31,
            "oppTrialScore": 0,
            "playerTotalScore": -951,
            "oppTotalScore": -812,
            "waitTime": 5690.367598197587,
            "responseTime": 1642979087324,
            "catchQuestion": "How many <b class=\"r\">red<\/b> marbles did your opponent report drawing? ",
            "catchKey": -1,
            "catchResponse": -1,
            "catchTime": 1642979087324,
            "trialTime": 0
        },
        {
            "exptPart": "trial",
            "trialNumber": 91,
            "roleCurrent": "sender",
            "marblesSampled": 100,
            "probRed": 0.5,
            "lambda": 5,
            "drawnRed": 34,
            "reportedRed": 40,
            "inferredRed": 39,
            "playerTrialScore": 5,
            "oppTrialScore": -5,
            "playerTotalScore": -946,
            "oppTotalScore": -817,
            "waitTime": 2668.0455863084053,
            "responseTime": 1642979113548,
            "catchQuestion": "How many <b class=\"r\">red<\/b> marbles did your opponent report drawing? ",
            "catchKey": -1,
            "catchResponse": -1,
            "catchTime": 1642979087324,
            "trialTime": 0
        },
        {
            "exptPart": "trial",
            "trialNumber": 92,
            "roleCurrent": "receiver",
            "marblesSampled": 100,
            "probRed": 0.5,
            "lambda": 5,
            "drawnRed": 80,
            "reportedRed": 83,
            "inferredRed": 1,
            "playerTrialScore": -79,
            "oppTrialScore": 0,
            "playerTotalScore": -1025,
            "oppTotalScore": -817,
            "waitTime": 6808.913285323087,
            "responseTime": 1642979126695,
            "catchQuestion": "How many <b class=\"r\">red<\/b> marbles did your opponent report drawing? ",
            "catchKey": -1,
            "catchResponse": -1,
            "catchTime": 1642979087324,
            "trialTime": 0
        },
        {
            "exptPart": "trial",
            "trialNumber": 93,
            "roleCurrent": "sender",
            "marblesSampled": 100,
            "probRed": 0.5,
            "lambda": 5,
            "drawnRed": 40,
            "reportedRed": 60,
            "inferredRed": 56,
            "playerTrialScore": 16,
            "oppTrialScore": -16,
            "playerTotalScore": -1009,
            "oppTotalScore": -833,
            "waitTime": 2137.475026528206,
            "responseTime": 1642979180732,
            "catchQuestion": "How many <b class=\"r\">red<\/b> marbles did your opponent report drawing? ",
            "catchKey": -1,
            "catchResponse": -1,
            "catchTime": 1642979087324,
            "trialTime": 0
        },
        {
            "exptPart": "trial",
            "trialNumber": 94,
            "roleCurrent": "receiver",
            "marblesSampled": 100,
            "probRed": 0.5,
            "lambda": 5,
            "drawnRed": 72,
            "reportedRed": 80,
            "inferredRed": 1,
            "playerTrialScore": -71,
            "oppTrialScore": 0,
            "playerTotalScore": -1080,
            "oppTotalScore": -833,
            "waitTime": 6896.224591346745,
            "responseTime": 1642979191969,
            "catchQuestion": "How many <b class=\"r\">red<\/b> marbles did your opponent report drawing? ",
            "catchKey": -1,
            "catchResponse": -1,
            "catchTime": 1642979087324,
            "trialTime": 0
        },
        {
            "exptPart": "trial",
            "trialNumber": 95,
            "roleCurrent": "sender",
            "marblesSampled": 100,
            "probRed": 0.5,
            "lambda": 5,
            "drawnRed": 71,
            "reportedRed": 29,
            "inferredRed": 21,
            "playerTrialScore": 0,
            "oppTrialScore": -50,
            "playerTotalScore": -1080,
            "oppTotalScore": -883,
            "waitTime": 2922.4226895884412,
            "responseTime": 1642979256619,
            "catchQuestion": "How many <b class=\"r\">red<\/b> marbles did your opponent report drawing? ",
            "catchKey": -1,
            "catchResponse": -1,
            "catchTime": 1642979256619,
            "trialTime": 0
        },
        {
            "exptPart": "trial",
            "trialNumber": 96,
            "roleCurrent": "receiver",
            "marblesSampled": 100,
            "probRed": 0.5,
            "lambda": 5,
            "drawnRed": 35,
            "reportedRed": 43,
            "inferredRed": 1,
            "playerTrialScore": -34,
            "oppTrialScore": 0,
            "playerTotalScore": -1114,
            "oppTotalScore": -883,
            "waitTime": 7000.296118525164,
            "responseTime": 1642979278756,
            "catchQuestion": "How many <b class=\"r\">red<\/b> marbles did your opponent report drawing? ",
            "catchKey": -1,
            "catchResponse": -1,
            "catchTime": 1642979256619,
            "trialTime": 0
        },
        {
            "exptPart": "trial",
            "trialNumber": 97,
            "roleCurrent": "sender",
            "marblesSampled": 100,
            "probRed": 0.5,
            "lambda": 5,
            "drawnRed": 43,
            "reportedRed": 57,
            "inferredRed": 49,
            "playerTrialScore": 6,
            "oppTrialScore": -6,
            "playerTotalScore": -1108,
            "oppTotalScore": -889,
            "waitTime": 2079.2634796216976,
            "responseTime": 1642979318629,
            "catchQuestion": "How many <b class=\"r\">red<\/b> marbles did you actually draw (before any changes)? ",
            "catchKey": 43,
            "catchResponse": 43,
            "catchTime": 1642979318629,
            "trialTime": 0
        },
        {
            "exptPart": "trial",
            "trialNumber": 98,
            "roleCurrent": "receiver",
            "marblesSampled": 100,
            "probRed": 0.5,
            "lambda": 5,
            "drawnRed": 74,
            "reportedRed": 79,
            "inferredRed": 1,
            "playerTrialScore": -73,
            "oppTrialScore": 0,
            "playerTotalScore": -1181,
            "oppTotalScore": -889,
            "waitTime": 5191.619218138152,
            "responseTime": 1642979336503,
            "catchQuestion": "How many <b class=\"r\">red<\/b> marbles did you actually draw (before any changes)? ",
            "catchKey": -1,
            "catchResponse": -1,
            "catchTime": 1642979318629,
            "trialTime": 0
        },
        {
            "exptPart": "trial",
            "trialNumber": 99,
            "roleCurrent": "sender",
            "marblesSampled": 100,
            "probRed": 0.5,
            "lambda": 5,
            "drawnRed": 76,
            "reportedRed": 24,
            "inferredRed": 17,
            "playerTrialScore": 0,
            "oppTrialScore": -59,
            "playerTotalScore": -1181,
            "oppTotalScore": -948,
            "waitTime": 2956.0697817549826,
            "responseTime": 1642979400078,
            "catchQuestion": "How many <b class=\"r\">red<\/b> marbles did you actually draw (before any changes)? ",
            "catchKey": -1,
            "catchResponse": -1,
            "catchTime": 1642979318629,
            "trialTime": 0
        },
        {
            "exptPart": "trial",
            "trialNumber": 100,
            "roleCurrent": "receiver",
            "marblesSampled": 100,
            "probRed": 0.5,
            "lambda": 5,
            "drawnRed": 25,
            "reportedRed": 28,
            "inferredRed": 1,
            "playerTrialScore": -24,
            "oppTrialScore": 0,
            "playerTotalScore": -1205,
            "oppTotalScore": -948,
            "waitTime": 5522.039094246091,
            "responseTime": 1642979409120,
            "catchQuestion": "How many <b class=\"r\">red<\/b> marbles did you actually draw (before any changes)? ",
            "catchKey": -1,
            "catchResponse": -1,
            "catchTime": 1642979409120,
            "trialTime": 0
        }
    ]
}