{
    "client": {
        "type": "sona",
        "experiment_id": 2228,
        "credit_token": "b315147ae43241ea9c65086cb510cfb7",
        "survey_code": "40732",
        "sid": "sona-40732",
        "window": {
            "width": 1440,
            "height": 820
        },
        "screen": {
            "width": 1440,
            "height": 900
        },
        "userAgent": "Mozilla\/5.0 (Macintosh; Intel Mac OS X 10_13_4) AppleWebKit\/537.36 (KHTML, like Gecko) Chrome\/97.0.4692.71 Safari\/537.36",
        "score": 0,
        "bonus": 0
    },
    "expt": {
        "saveURL": "submit.simple.php",
        "trials": 100,
        "practiceTrials": 2,
        "marblesSampled": 100,
        "probRed": 0.5,
        "lambdaAI": 5,
        "roleFirst": "sender",
        "roles": [
            "sender",
            "receiver"
        ],
        "cost": "unif",
        "goal": "over",
        "catchTrials": [
            70,
            45,
            92,
            38,
            82,
            0,
            59,
            57,
            99,
            47
        ],
        "scoreTotal": {
            "player": -117,
            "opp": -403
        },
        "sona": {
            "experiment_id": 2228,
            "credit_token": "b315147ae43241ea9c65086cb510cfb7"
        },
        "pilot": false,
        "debug": false
    },
    "trials": [
        {
            "exptPart": "practice",
            "trialNumber": 1,
            "roleCurrent": "sender",
            "marblesSampled": 100,
            "probRed": 0.5,
            "lambda": 5,
            "drawnRed": 39,
            "reportedRed": 47,
            "inferredRed": 42,
            "playerTrialScore": 3,
            "oppTrialScore": -3,
            "playerTotalScore": 3,
            "oppTotalScore": -3,
            "waitTime": 3118.0851436167377,
            "responseTime": 1642461883393,
            "catchQuestion": "How many <b class=\"r\">red<\/b> marbles did you actually draw (before any changes)? ",
            "catchKey": 39,
            "catchResponse": 37,
            "catchTime": 1642461883393,
            "trialTime": 0
        },
        {
            "exptPart": "practice",
            "trialNumber": 2,
            "roleCurrent": "receiver",
            "marblesSampled": 100,
            "probRed": 0.5,
            "lambda": 5,
            "drawnRed": 57,
            "reportedRed": 62,
            "inferredRed": 30,
            "playerTrialScore": -27,
            "oppTrialScore": 0,
            "playerTotalScore": -24,
            "oppTotalScore": -3,
            "waitTime": 6556.407974132246,
            "responseTime": 1642461956480,
            "catchQuestion": "How many <b class=\"r\">red<\/b> marbles did your opponent report drawing? ",
            "catchKey": 62,
            "catchResponse": 62,
            "catchTime": 1642461956480,
            "trialTime": 0
        },
        {
            "exptPart": "trial",
            "trialNumber": 1,
            "roleCurrent": "sender",
            "marblesSampled": 100,
            "probRed": 0.5,
            "lambda": 5,
            "drawnRed": 87,
            "reportedRed": 87,
            "inferredRed": 80,
            "playerTrialScore": 0,
            "oppTrialScore": -7,
            "playerTotalScore": 0,
            "oppTotalScore": -7,
            "waitTime": 2522.726715581367,
            "responseTime": 1642462030222,
            "catchQuestion": "How many <b class=\"r\">red<\/b> marbles did you actually draw (before any changes)? ",
            "catchKey": 87,
            "catchResponse": 87,
            "catchTime": 1642462030222,
            "trialTime": 0
        },
        {
            "exptPart": "trial",
            "trialNumber": 2,
            "roleCurrent": "receiver",
            "marblesSampled": 100,
            "probRed": 0.5,
            "lambda": 5,
            "drawnRed": 51,
            "reportedRed": 54,
            "inferredRed": 52,
            "playerTrialScore": -1,
            "oppTrialScore": 1,
            "playerTotalScore": -1,
            "oppTotalScore": -6,
            "waitTime": 6959.658948743149,
            "responseTime": 1642462057432,
            "catchQuestion": "How many <b class=\"r\">red<\/b> marbles did you actually draw (before any changes)? ",
            "catchKey": -1,
            "catchResponse": -1,
            "catchTime": 1642462030222,
            "trialTime": 0
        },
        {
            "exptPart": "trial",
            "trialNumber": 3,
            "roleCurrent": "sender",
            "marblesSampled": 100,
            "probRed": 0.5,
            "lambda": 5,
            "drawnRed": 20,
            "reportedRed": 22,
            "inferredRed": 20,
            "playerTrialScore": 0,
            "oppTrialScore": 0,
            "playerTotalScore": -1,
            "oppTotalScore": -6,
            "waitTime": 2405.8940205089284,
            "responseTime": 1642462077282,
            "catchQuestion": "How many <b class=\"r\">red<\/b> marbles did you actually draw (before any changes)? ",
            "catchKey": -1,
            "catchResponse": -1,
            "catchTime": 1642462030222,
            "trialTime": 0
        },
        {
            "exptPart": "trial",
            "trialNumber": 4,
            "roleCurrent": "receiver",
            "marblesSampled": 100,
            "probRed": 0.5,
            "lambda": 5,
            "drawnRed": 64,
            "reportedRed": 70,
            "inferredRed": 66,
            "playerTrialScore": -2,
            "oppTrialScore": 2,
            "playerTotalScore": -3,
            "oppTotalScore": -4,
            "waitTime": 5815.503879734704,
            "responseTime": 1642462095106,
            "catchQuestion": "How many <b class=\"r\">red<\/b> marbles did you actually draw (before any changes)? ",
            "catchKey": -1,
            "catchResponse": -1,
            "catchTime": 1642462030222,
            "trialTime": 0
        },
        {
            "exptPart": "trial",
            "trialNumber": 5,
            "roleCurrent": "sender",
            "marblesSampled": 100,
            "probRed": 0.5,
            "lambda": 5,
            "drawnRed": 50,
            "reportedRed": 52,
            "inferredRed": 44,
            "playerTrialScore": 0,
            "oppTrialScore": -6,
            "playerTotalScore": -3,
            "oppTotalScore": -10,
            "waitTime": 2953.774221830744,
            "responseTime": 1642462184763,
            "catchQuestion": "How many <b class=\"r\">red<\/b> marbles did you actually draw (before any changes)? ",
            "catchKey": -1,
            "catchResponse": -1,
            "catchTime": 1642462184763,
            "trialTime": 0
        },
        {
            "exptPart": "trial",
            "trialNumber": 6,
            "roleCurrent": "receiver",
            "marblesSampled": 100,
            "probRed": 0.5,
            "lambda": 5,
            "drawnRed": 59,
            "reportedRed": 66,
            "inferredRed": 62,
            "playerTrialScore": -3,
            "oppTrialScore": 3,
            "playerTotalScore": -6,
            "oppTotalScore": -7,
            "waitTime": 5755.52647952509,
            "responseTime": 1642462256315,
            "catchQuestion": "How many <b class=\"r\">red<\/b> marbles did you actually draw (before any changes)? ",
            "catchKey": -1,
            "catchResponse": -1,
            "catchTime": 1642462184763,
            "trialTime": 0
        },
        {
            "exptPart": "trial",
            "trialNumber": 7,
            "roleCurrent": "sender",
            "marblesSampled": 100,
            "probRed": 0.5,
            "lambda": 5,
            "drawnRed": 82,
            "reportedRed": 82,
            "inferredRed": 79,
            "playerTrialScore": 0,
            "oppTrialScore": -3,
            "playerTotalScore": -6,
            "oppTotalScore": -10,
            "waitTime": 2563.448092140965,
            "responseTime": 1642462271508,
            "catchQuestion": "How many <b class=\"r\">red<\/b> marbles did you actually draw (before any changes)? ",
            "catchKey": -1,
            "catchResponse": -1,
            "catchTime": 1642462184763,
            "trialTime": 0
        },
        {
            "exptPart": "trial",
            "trialNumber": 8,
            "roleCurrent": "receiver",
            "marblesSampled": 100,
            "probRed": 0.5,
            "lambda": 5,
            "drawnRed": 18,
            "reportedRed": 22,
            "inferredRed": 25,
            "playerTrialScore": -7,
            "oppTrialScore": 7,
            "playerTotalScore": -13,
            "oppTotalScore": -3,
            "waitTime": 6064.081618848622,
            "responseTime": 1642462340114,
            "catchQuestion": "How many <b class=\"r\">red<\/b> marbles did you actually draw (before any changes)? ",
            "catchKey": -1,
            "catchResponse": -1,
            "catchTime": 1642462184763,
            "trialTime": 0
        },
        {
            "exptPart": "trial",
            "trialNumber": 9,
            "roleCurrent": "sender",
            "marblesSampled": 100,
            "probRed": 0.5,
            "lambda": 5,
            "drawnRed": 42,
            "reportedRed": 65,
            "inferredRed": 57,
            "playerTrialScore": 15,
            "oppTrialScore": -15,
            "playerTotalScore": 2,
            "oppTotalScore": -18,
            "waitTime": 3083.6654583632917,
            "responseTime": 1642462395690,
            "catchQuestion": "How many <b class=\"r\">red<\/b> marbles did you actually draw (before any changes)? ",
            "catchKey": -1,
            "catchResponse": -1,
            "catchTime": 1642462184763,
            "trialTime": 0
        },
        {
            "exptPart": "trial",
            "trialNumber": 10,
            "roleCurrent": "receiver",
            "marblesSampled": 100,
            "probRed": 0.5,
            "lambda": 5,
            "drawnRed": 32,
            "reportedRed": 37,
            "inferredRed": 41,
            "playerTrialScore": -9,
            "oppTrialScore": 9,
            "playerTotalScore": -7,
            "oppTotalScore": -9,
            "waitTime": 6624.723870817442,
            "responseTime": 1642462410565,
            "catchQuestion": "How many <b class=\"r\">red<\/b> marbles did you actually draw (before any changes)? ",
            "catchKey": -1,
            "catchResponse": -1,
            "catchTime": 1642462410565,
            "trialTime": 0
        },
        {
            "exptPart": "trial",
            "trialNumber": 11,
            "roleCurrent": "sender",
            "marblesSampled": 100,
            "probRed": 0.5,
            "lambda": 5,
            "drawnRed": 48,
            "reportedRed": 55,
            "inferredRed": 49,
            "playerTrialScore": 1,
            "oppTrialScore": -1,
            "playerTotalScore": -6,
            "oppTotalScore": -10,
            "waitTime": 3032.0372205246877,
            "responseTime": 1642462445516,
            "catchQuestion": "How many <b class=\"r\">red<\/b> marbles did you actually draw (before any changes)? ",
            "catchKey": -1,
            "catchResponse": -1,
            "catchTime": 1642462410565,
            "trialTime": 0
        },
        {
            "exptPart": "trial",
            "trialNumber": 12,
            "roleCurrent": "receiver",
            "marblesSampled": 100,
            "probRed": 0.5,
            "lambda": 5,
            "drawnRed": 63,
            "reportedRed": 67,
            "inferredRed": 61,
            "playerTrialScore": -2,
            "oppTrialScore": 0,
            "playerTotalScore": -8,
            "oppTotalScore": -10,
            "waitTime": 5974.328901827355,
            "responseTime": 1642462459164,
            "catchQuestion": "How many <b class=\"r\">red<\/b> marbles did you actually draw (before any changes)? ",
            "catchKey": -1,
            "catchResponse": -1,
            "catchTime": 1642462410565,
            "trialTime": 0
        },
        {
            "exptPart": "trial",
            "trialNumber": 13,
            "roleCurrent": "sender",
            "marblesSampled": 100,
            "probRed": 0.5,
            "lambda": 5,
            "drawnRed": 44,
            "reportedRed": 24,
            "inferredRed": 19,
            "playerTrialScore": 0,
            "oppTrialScore": -25,
            "playerTotalScore": -8,
            "oppTotalScore": -35,
            "waitTime": 2198.6556678975776,
            "responseTime": 1642462496257,
            "catchQuestion": "How many <b class=\"r\">red<\/b> marbles did you actually draw (before any changes)? ",
            "catchKey": -1,
            "catchResponse": -1,
            "catchTime": 1642462410565,
            "trialTime": 0
        },
        {
            "exptPart": "trial",
            "trialNumber": 14,
            "roleCurrent": "receiver",
            "marblesSampled": 100,
            "probRed": 0.5,
            "lambda": 5,
            "drawnRed": 30,
            "reportedRed": 34,
            "inferredRed": 34,
            "playerTrialScore": -4,
            "oppTrialScore": 4,
            "playerTotalScore": -12,
            "oppTotalScore": -31,
            "waitTime": 6685.037206662741,
            "responseTime": 1642462520073,
            "catchQuestion": "How many <b class=\"r\">red<\/b> marbles did you actually draw (before any changes)? ",
            "catchKey": -1,
            "catchResponse": -1,
            "catchTime": 1642462410565,
            "trialTime": 0
        },
        {
            "exptPart": "trial",
            "trialNumber": 15,
            "roleCurrent": "sender",
            "marblesSampled": 100,
            "probRed": 0.5,
            "lambda": 5,
            "drawnRed": 54,
            "reportedRed": 30,
            "inferredRed": 28,
            "playerTrialScore": 0,
            "oppTrialScore": -26,
            "playerTotalScore": -12,
            "oppTotalScore": -57,
            "waitTime": 2746.3005483228526,
            "responseTime": 1642462562752,
            "catchQuestion": "How many <b class=\"r\">red<\/b> marbles did you actually draw (before any changes)? ",
            "catchKey": -1,
            "catchResponse": -1,
            "catchTime": 1642462562752,
            "trialTime": 0
        },
        {
            "exptPart": "trial",
            "trialNumber": 16,
            "roleCurrent": "receiver",
            "marblesSampled": 100,
            "probRed": 0.5,
            "lambda": 5,
            "drawnRed": 24,
            "reportedRed": 28,
            "inferredRed": 33,
            "playerTrialScore": -9,
            "oppTrialScore": 9,
            "playerTotalScore": -21,
            "oppTotalScore": -48,
            "waitTime": 6768.331842042429,
            "responseTime": 1642462593756,
            "catchQuestion": "How many <b class=\"r\">red<\/b> marbles did you actually draw (before any changes)? ",
            "catchKey": -1,
            "catchResponse": -1,
            "catchTime": 1642462562752,
            "trialTime": 0
        },
        {
            "exptPart": "trial",
            "trialNumber": 17,
            "roleCurrent": "sender",
            "marblesSampled": 100,
            "probRed": 0.5,
            "lambda": 5,
            "drawnRed": 27,
            "reportedRed": 27,
            "inferredRed": 15,
            "playerTrialScore": 0,
            "oppTrialScore": -12,
            "playerTotalScore": -21,
            "oppTotalScore": -60,
            "waitTime": 3245.9220404913694,
            "responseTime": 1642462606277,
            "catchQuestion": "How many <b class=\"r\">red<\/b> marbles did you actually draw (before any changes)? ",
            "catchKey": -1,
            "catchResponse": -1,
            "catchTime": 1642462562752,
            "trialTime": 0
        },
        {
            "exptPart": "trial",
            "trialNumber": 18,
            "roleCurrent": "receiver",
            "marblesSampled": 100,
            "probRed": 0.5,
            "lambda": 5,
            "drawnRed": 5,
            "reportedRed": 16,
            "inferredRed": 22,
            "playerTrialScore": -17,
            "oppTrialScore": 17,
            "playerTotalScore": -38,
            "oppTotalScore": -43,
            "waitTime": 6996.8648745714745,
            "responseTime": 1642462630372,
            "catchQuestion": "How many <b class=\"r\">red<\/b> marbles did you actually draw (before any changes)? ",
            "catchKey": -1,
            "catchResponse": -1,
            "catchTime": 1642462562752,
            "trialTime": 0
        },
        {
            "exptPart": "trial",
            "trialNumber": 19,
            "roleCurrent": "sender",
            "marblesSampled": 100,
            "probRed": 0.5,
            "lambda": 5,
            "drawnRed": 53,
            "reportedRed": 53,
            "inferredRed": 43,
            "playerTrialScore": 0,
            "oppTrialScore": -10,
            "playerTotalScore": -38,
            "oppTotalScore": -53,
            "waitTime": 2276.1177534415137,
            "responseTime": 1642462643457,
            "catchQuestion": "How many <b class=\"r\">red<\/b> marbles did you actually draw (before any changes)? ",
            "catchKey": -1,
            "catchResponse": -1,
            "catchTime": 1642462562752,
            "trialTime": 0
        },
        {
            "exptPart": "trial",
            "trialNumber": 20,
            "roleCurrent": "receiver",
            "marblesSampled": 100,
            "probRed": 0.5,
            "lambda": 5,
            "drawnRed": 12,
            "reportedRed": 15,
            "inferredRed": 22,
            "playerTrialScore": -10,
            "oppTrialScore": 10,
            "playerTotalScore": -48,
            "oppTotalScore": -43,
            "waitTime": 7022.141657267206,
            "responseTime": 1642462655907,
            "catchQuestion": "How many <b class=\"r\">red<\/b> marbles did you actually draw (before any changes)? ",
            "catchKey": -1,
            "catchResponse": -1,
            "catchTime": 1642462655907,
            "trialTime": 0
        },
        {
            "exptPart": "trial",
            "trialNumber": 21,
            "roleCurrent": "sender",
            "marblesSampled": 100,
            "probRed": 0.5,
            "lambda": 5,
            "drawnRed": 19,
            "reportedRed": 19,
            "inferredRed": 9,
            "playerTrialScore": 0,
            "oppTrialScore": -10,
            "playerTotalScore": -48,
            "oppTotalScore": -53,
            "waitTime": 2933.9136098474537,
            "responseTime": 1642462670787,
            "catchQuestion": "How many <b class=\"r\">red<\/b> marbles did you actually draw (before any changes)? ",
            "catchKey": -1,
            "catchResponse": -1,
            "catchTime": 1642462655907,
            "trialTime": 0
        },
        {
            "exptPart": "trial",
            "trialNumber": 22,
            "roleCurrent": "receiver",
            "marblesSampled": 100,
            "probRed": 0.5,
            "lambda": 5,
            "drawnRed": 44,
            "reportedRed": 47,
            "inferredRed": 47,
            "playerTrialScore": -3,
            "oppTrialScore": 3,
            "playerTotalScore": -51,
            "oppTotalScore": -50,
            "waitTime": 6804.191647644388,
            "responseTime": 1642462683002,
            "catchQuestion": "How many <b class=\"r\">red<\/b> marbles did you actually draw (before any changes)? ",
            "catchKey": -1,
            "catchResponse": -1,
            "catchTime": 1642462655907,
            "trialTime": 0
        },
        {
            "exptPart": "trial",
            "trialNumber": 23,
            "roleCurrent": "sender",
            "marblesSampled": 100,
            "probRed": 0.5,
            "lambda": 5,
            "drawnRed": 73,
            "reportedRed": 80,
            "inferredRed": 73,
            "playerTrialScore": 0,
            "oppTrialScore": 0,
            "playerTotalScore": -51,
            "oppTotalScore": -50,
            "waitTime": 2890.139003000287,
            "responseTime": 1642462709180,
            "catchQuestion": "How many <b class=\"r\">red<\/b> marbles did you actually draw (before any changes)? ",
            "catchKey": -1,
            "catchResponse": -1,
            "catchTime": 1642462655907,
            "trialTime": 0
        },
        {
            "exptPart": "trial",
            "trialNumber": 24,
            "roleCurrent": "receiver",
            "marblesSampled": 100,
            "probRed": 0.5,
            "lambda": 5,
            "drawnRed": 25,
            "reportedRed": 31,
            "inferredRed": 33,
            "playerTrialScore": -8,
            "oppTrialScore": 8,
            "playerTotalScore": -59,
            "oppTotalScore": -42,
            "waitTime": 5272.292037782734,
            "responseTime": 1642462722413,
            "catchQuestion": "How many <b class=\"r\">red<\/b> marbles did you actually draw (before any changes)? ",
            "catchKey": -1,
            "catchResponse": -1,
            "catchTime": 1642462655907,
            "trialTime": 0
        },
        {
            "exptPart": "trial",
            "trialNumber": 25,
            "roleCurrent": "sender",
            "marblesSampled": 100,
            "probRed": 0.5,
            "lambda": 5,
            "drawnRed": 23,
            "reportedRed": 23,
            "inferredRed": 21,
            "playerTrialScore": 0,
            "oppTrialScore": -2,
            "playerTotalScore": -59,
            "oppTotalScore": -44,
            "waitTime": 2291.92731074548,
            "responseTime": 1642462733703,
            "catchQuestion": "How many <b class=\"r\">red<\/b> marbles did you actually draw (before any changes)? ",
            "catchKey": -1,
            "catchResponse": -1,
            "catchTime": 1642462733703,
            "trialTime": 0
        },
        {
            "exptPart": "trial",
            "trialNumber": 26,
            "roleCurrent": "receiver",
            "marblesSampled": 100,
            "probRed": 0.5,
            "lambda": 5,
            "drawnRed": 53,
            "reportedRed": 58,
            "inferredRed": 53,
            "playerTrialScore": 0,
            "oppTrialScore": 0,
            "playerTotalScore": -59,
            "oppTotalScore": -44,
            "waitTime": 5698.984346515081,
            "responseTime": 1642462764441,
            "catchQuestion": "How many <b class=\"r\">red<\/b> marbles did you actually draw (before any changes)? ",
            "catchKey": -1,
            "catchResponse": -1,
            "catchTime": 1642462733703,
            "trialTime": 0
        },
        {
            "exptPart": "trial",
            "trialNumber": 27,
            "roleCurrent": "sender",
            "marblesSampled": 100,
            "probRed": 0.5,
            "lambda": 5,
            "drawnRed": 54,
            "reportedRed": 48,
            "inferredRed": 44,
            "playerTrialScore": 0,
            "oppTrialScore": -10,
            "playerTotalScore": -59,
            "oppTotalScore": -54,
            "waitTime": 2232.458994334267,
            "responseTime": 1642462791180,
            "catchQuestion": "How many <b class=\"r\">red<\/b> marbles did you actually draw (before any changes)? ",
            "catchKey": -1,
            "catchResponse": -1,
            "catchTime": 1642462733703,
            "trialTime": 0
        },
        {
            "exptPart": "trial",
            "trialNumber": 28,
            "roleCurrent": "receiver",
            "marblesSampled": 100,
            "probRed": 0.5,
            "lambda": 5,
            "drawnRed": 48,
            "reportedRed": 52,
            "inferredRed": 48,
            "playerTrialScore": 0,
            "oppTrialScore": 0,
            "playerTotalScore": -59,
            "oppTotalScore": -54,
            "waitTime": 5392.894399043595,
            "responseTime": 1642462802721,
            "catchQuestion": "How many <b class=\"r\">red<\/b> marbles did you actually draw (before any changes)? ",
            "catchKey": -1,
            "catchResponse": -1,
            "catchTime": 1642462733703,
            "trialTime": 0
        },
        {
            "exptPart": "trial",
            "trialNumber": 29,
            "roleCurrent": "sender",
            "marblesSampled": 100,
            "probRed": 0.5,
            "lambda": 5,
            "drawnRed": 76,
            "reportedRed": 83,
            "inferredRed": 73,
            "playerTrialScore": 0,
            "oppTrialScore": -3,
            "playerTotalScore": -59,
            "oppTotalScore": -57,
            "waitTime": 2071.5583359247184,
            "responseTime": 1642462869116,
            "catchQuestion": "How many <b class=\"r\">red<\/b> marbles did you actually draw (before any changes)? ",
            "catchKey": -1,
            "catchResponse": -1,
            "catchTime": 1642462733703,
            "trialTime": 0
        },
        {
            "exptPart": "trial",
            "trialNumber": 30,
            "roleCurrent": "receiver",
            "marblesSampled": 100,
            "probRed": 0.5,
            "lambda": 5,
            "drawnRed": 46,
            "reportedRed": 51,
            "inferredRed": 50,
            "playerTrialScore": -4,
            "oppTrialScore": 4,
            "playerTotalScore": -63,
            "oppTotalScore": -53,
            "waitTime": 6944.944642476905,
            "responseTime": 1642462881302,
            "catchQuestion": "How many <b class=\"r\">red<\/b> marbles did you actually draw (before any changes)? ",
            "catchKey": -1,
            "catchResponse": -1,
            "catchTime": 1642462881302,
            "trialTime": 0
        },
        {
            "exptPart": "trial",
            "trialNumber": 31,
            "roleCurrent": "sender",
            "marblesSampled": 100,
            "probRed": 0.5,
            "lambda": 5,
            "drawnRed": 65,
            "reportedRed": 17,
            "inferredRed": 12,
            "playerTrialScore": 0,
            "oppTrialScore": -53,
            "playerTotalScore": -63,
            "oppTotalScore": -106,
            "waitTime": 2559.7552582876383,
            "responseTime": 1642462938217,
            "catchQuestion": "How many <b class=\"r\">red<\/b> marbles did you actually draw (before any changes)? ",
            "catchKey": -1,
            "catchResponse": -1,
            "catchTime": 1642462881302,
            "trialTime": 0
        },
        {
            "exptPart": "trial",
            "trialNumber": 32,
            "roleCurrent": "receiver",
            "marblesSampled": 100,
            "probRed": 0.5,
            "lambda": 5,
            "drawnRed": 37,
            "reportedRed": 42,
            "inferredRed": 37,
            "playerTrialScore": 0,
            "oppTrialScore": 0,
            "playerTotalScore": -63,
            "oppTotalScore": -106,
            "waitTime": 5454.962221806003,
            "responseTime": 1642462950001,
            "catchQuestion": "How many <b class=\"r\">red<\/b> marbles did you actually draw (before any changes)? ",
            "catchKey": -1,
            "catchResponse": -1,
            "catchTime": 1642462881302,
            "trialTime": 0
        },
        {
            "exptPart": "trial",
            "trialNumber": 33,
            "roleCurrent": "sender",
            "marblesSampled": 100,
            "probRed": 0.5,
            "lambda": 5,
            "drawnRed": 43,
            "reportedRed": 31,
            "inferredRed": 24,
            "playerTrialScore": 0,
            "oppTrialScore": -19,
            "playerTotalScore": -63,
            "oppTotalScore": -125,
            "waitTime": 3223.5261014730218,
            "responseTime": 1642462970743,
            "catchQuestion": "How many <b class=\"r\">red<\/b> marbles did you actually draw (before any changes)? ",
            "catchKey": -1,
            "catchResponse": -1,
            "catchTime": 1642462881302,
            "trialTime": 0
        },
        {
            "exptPart": "trial",
            "trialNumber": 34,
            "roleCurrent": "receiver",
            "marblesSampled": 100,
            "probRed": 0.5,
            "lambda": 5,
            "drawnRed": 73,
            "reportedRed": 79,
            "inferredRed": 71,
            "playerTrialScore": -2,
            "oppTrialScore": 0,
            "playerTotalScore": -65,
            "oppTotalScore": -125,
            "waitTime": 5889.771729267095,
            "responseTime": 1642462990616,
            "catchQuestion": "How many <b class=\"r\">red<\/b> marbles did you actually draw (before any changes)? ",
            "catchKey": -1,
            "catchResponse": -1,
            "catchTime": 1642462881302,
            "trialTime": 0
        },
        {
            "exptPart": "trial",
            "trialNumber": 35,
            "roleCurrent": "sender",
            "marblesSampled": 100,
            "probRed": 0.5,
            "lambda": 5,
            "drawnRed": 45,
            "reportedRed": 40,
            "inferredRed": 37,
            "playerTrialScore": 0,
            "oppTrialScore": -8,
            "playerTotalScore": -65,
            "oppTotalScore": -133,
            "waitTime": 2275.7979810530715,
            "responseTime": 1642463019297,
            "catchQuestion": "How many <b class=\"r\">red<\/b> marbles did you actually draw (before any changes)? ",
            "catchKey": -1,
            "catchResponse": -1,
            "catchTime": 1642463019297,
            "trialTime": 0
        },
        {
            "exptPart": "trial",
            "trialNumber": 36,
            "roleCurrent": "receiver",
            "marblesSampled": 100,
            "probRed": 0.5,
            "lambda": 5,
            "drawnRed": 75,
            "reportedRed": 77,
            "inferredRed": 70,
            "playerTrialScore": -5,
            "oppTrialScore": 0,
            "playerTotalScore": -70,
            "oppTotalScore": -133,
            "waitTime": 7430.604210270197,
            "responseTime": 1642463050831,
            "catchQuestion": "How many <b class=\"r\">red<\/b> marbles did you actually draw (before any changes)? ",
            "catchKey": -1,
            "catchResponse": -1,
            "catchTime": 1642463019297,
            "trialTime": 0
        },
        {
            "exptPart": "trial",
            "trialNumber": 37,
            "roleCurrent": "sender",
            "marblesSampled": 100,
            "probRed": 0.5,
            "lambda": 5,
            "drawnRed": 69,
            "reportedRed": 37,
            "inferredRed": 31,
            "playerTrialScore": 0,
            "oppTrialScore": -38,
            "playerTotalScore": -70,
            "oppTotalScore": -171,
            "waitTime": 2741.742435547165,
            "responseTime": 1642463085184,
            "catchQuestion": "How many <b class=\"r\">red<\/b> marbles did you actually draw (before any changes)? ",
            "catchKey": -1,
            "catchResponse": -1,
            "catchTime": 1642463019297,
            "trialTime": 0
        },
        {
            "exptPart": "trial",
            "trialNumber": 38,
            "roleCurrent": "receiver",
            "marblesSampled": 100,
            "probRed": 0.5,
            "lambda": 5,
            "drawnRed": 25,
            "reportedRed": 30,
            "inferredRed": 35,
            "playerTrialScore": -10,
            "oppTrialScore": 10,
            "playerTotalScore": -80,
            "oppTotalScore": -161,
            "waitTime": 7459.080202602748,
            "responseTime": 1642463097984,
            "catchQuestion": "How many <b class=\"r\">red<\/b> marbles did you actually draw (before any changes)? ",
            "catchKey": -1,
            "catchResponse": -1,
            "catchTime": 1642463019297,
            "trialTime": 0
        },
        {
            "exptPart": "trial",
            "trialNumber": 39,
            "roleCurrent": "sender",
            "marblesSampled": 100,
            "probRed": 0.5,
            "lambda": 5,
            "drawnRed": 50,
            "reportedRed": 31,
            "inferredRed": 28,
            "playerTrialScore": 0,
            "oppTrialScore": -22,
            "playerTotalScore": -80,
            "oppTotalScore": -183,
            "waitTime": 2087.0596350661363,
            "responseTime": 1642463126794,
            "catchQuestion": "How many <b class=\"r\">red<\/b> marbles did you actually draw (before any changes)? ",
            "catchKey": 50,
            "catchResponse": 50,
            "catchTime": 1642463126794,
            "trialTime": 0
        },
        {
            "exptPart": "trial",
            "trialNumber": 40,
            "roleCurrent": "receiver",
            "marblesSampled": 100,
            "probRed": 0.5,
            "lambda": 5,
            "drawnRed": 47,
            "reportedRed": 53,
            "inferredRed": 48,
            "playerTrialScore": -1,
            "oppTrialScore": 1,
            "playerTotalScore": -81,
            "oppTotalScore": -182,
            "waitTime": 5349.213734250176,
            "responseTime": 1642463146877,
            "catchQuestion": "How many <b class=\"r\">red<\/b> marbles did you actually draw (before any changes)? ",
            "catchKey": -1,
            "catchResponse": -1,
            "catchTime": 1642463146877,
            "trialTime": 0
        },
        {
            "exptPart": "trial",
            "trialNumber": 41,
            "roleCurrent": "sender",
            "marblesSampled": 100,
            "probRed": 0.5,
            "lambda": 5,
            "drawnRed": 46,
            "reportedRed": 24,
            "inferredRed": 17,
            "playerTrialScore": 0,
            "oppTrialScore": -29,
            "playerTotalScore": -81,
            "oppTotalScore": -211,
            "waitTime": 3042.6548066670484,
            "responseTime": 1642463178329,
            "catchQuestion": "How many <b class=\"r\">red<\/b> marbles did you actually draw (before any changes)? ",
            "catchKey": -1,
            "catchResponse": -1,
            "catchTime": 1642463146877,
            "trialTime": 0
        },
        {
            "exptPart": "trial",
            "trialNumber": 42,
            "roleCurrent": "receiver",
            "marblesSampled": 100,
            "probRed": 0.5,
            "lambda": 5,
            "drawnRed": 46,
            "reportedRed": 52,
            "inferredRed": 48,
            "playerTrialScore": -2,
            "oppTrialScore": 2,
            "playerTotalScore": -83,
            "oppTotalScore": -209,
            "waitTime": 5405.269921580564,
            "responseTime": 1642463190286,
            "catchQuestion": "How many <b class=\"r\">red<\/b> marbles did you actually draw (before any changes)? ",
            "catchKey": -1,
            "catchResponse": -1,
            "catchTime": 1642463146877,
            "trialTime": 0
        },
        {
            "exptPart": "trial",
            "trialNumber": 43,
            "roleCurrent": "sender",
            "marblesSampled": 100,
            "probRed": 0.5,
            "lambda": 5,
            "drawnRed": 58,
            "reportedRed": 75,
            "inferredRed": 66,
            "playerTrialScore": 8,
            "oppTrialScore": -8,
            "playerTotalScore": -75,
            "oppTotalScore": -217,
            "waitTime": 2523.766423828134,
            "responseTime": 1642463212230,
            "catchQuestion": "How many <b class=\"r\">red<\/b> marbles did you actually draw (before any changes)? ",
            "catchKey": -1,
            "catchResponse": -1,
            "catchTime": 1642463146877,
            "trialTime": 0
        },
        {
            "exptPart": "trial",
            "trialNumber": 44,
            "roleCurrent": "receiver",
            "marblesSampled": 100,
            "probRed": 0.5,
            "lambda": 5,
            "drawnRed": 12,
            "reportedRed": 19,
            "inferredRed": 25,
            "playerTrialScore": -13,
            "oppTrialScore": 13,
            "playerTotalScore": -88,
            "oppTotalScore": -204,
            "waitTime": 5781.488239492941,
            "responseTime": 1642463225576,
            "catchQuestion": "How many <b class=\"r\">red<\/b> marbles did you actually draw (before any changes)? ",
            "catchKey": -1,
            "catchResponse": -1,
            "catchTime": 1642463146877,
            "trialTime": 0
        },
        {
            "exptPart": "trial",
            "trialNumber": 45,
            "roleCurrent": "sender",
            "marblesSampled": 100,
            "probRed": 0.5,
            "lambda": 5,
            "drawnRed": 10,
            "reportedRed": 10,
            "inferredRed": 5,
            "playerTrialScore": 0,
            "oppTrialScore": -5,
            "playerTotalScore": -88,
            "oppTotalScore": -209,
            "waitTime": 2134.6190625055024,
            "responseTime": 1642463233710,
            "catchQuestion": "How many <b class=\"r\">red<\/b> marbles did you actually draw (before any changes)? ",
            "catchKey": -1,
            "catchResponse": -1,
            "catchTime": 1642463233710,
            "trialTime": 0
        },
        {
            "exptPart": "trial",
            "trialNumber": 46,
            "roleCurrent": "receiver",
            "marblesSampled": 100,
            "probRed": 0.5,
            "lambda": 5,
            "drawnRed": 42,
            "reportedRed": 45,
            "inferredRed": 41,
            "playerTrialScore": -1,
            "oppTrialScore": 0,
            "playerTotalScore": -89,
            "oppTotalScore": -209,
            "waitTime": 6088.8066828977935,
            "responseTime": 1642463255537,
            "catchQuestion": "How many <b class=\"r\">red<\/b> marbles did your opponent report drawing? ",
            "catchKey": 45,
            "catchResponse": 45,
            "catchTime": 1642463255537,
            "trialTime": 0
        },
        {
            "exptPart": "trial",
            "trialNumber": 47,
            "roleCurrent": "sender",
            "marblesSampled": 100,
            "probRed": 0.5,
            "lambda": 5,
            "drawnRed": 53,
            "reportedRed": 28,
            "inferredRed": 24,
            "playerTrialScore": 0,
            "oppTrialScore": -29,
            "playerTotalScore": -89,
            "oppTotalScore": -238,
            "waitTime": 2582.5028526965275,
            "responseTime": 1642463291969,
            "catchQuestion": "How many <b class=\"r\">red<\/b> marbles did your opponent report drawing? ",
            "catchKey": -1,
            "catchResponse": -1,
            "catchTime": 1642463255537,
            "trialTime": 0
        },
        {
            "exptPart": "trial",
            "trialNumber": 48,
            "roleCurrent": "receiver",
            "marblesSampled": 100,
            "probRed": 0.5,
            "lambda": 5,
            "drawnRed": 69,
            "reportedRed": 74,
            "inferredRed": 68,
            "playerTrialScore": -1,
            "oppTrialScore": 0,
            "playerTotalScore": -90,
            "oppTotalScore": -238,
            "waitTime": 5687.529586643695,
            "responseTime": 1642463304713,
            "catchQuestion": "How many <b class=\"r\">red<\/b> marbles did your opponent report drawing? ",
            "catchKey": 74,
            "catchResponse": 74,
            "catchTime": 1642463304713,
            "trialTime": 0
        },
        {
            "exptPart": "trial",
            "trialNumber": 49,
            "roleCurrent": "sender",
            "marblesSampled": 100,
            "probRed": 0.5,
            "lambda": 5,
            "drawnRed": 22,
            "reportedRed": 22,
            "inferredRed": 16,
            "playerTrialScore": 0,
            "oppTrialScore": -6,
            "playerTotalScore": -90,
            "oppTotalScore": -244,
            "waitTime": 2427.779613979036,
            "responseTime": 1642463326183,
            "catchQuestion": "How many <b class=\"r\">red<\/b> marbles did your opponent report drawing? ",
            "catchKey": -1,
            "catchResponse": -1,
            "catchTime": 1642463304713,
            "trialTime": 0
        },
        {
            "exptPart": "trial",
            "trialNumber": 50,
            "roleCurrent": "receiver",
            "marblesSampled": 100,
            "probRed": 0.5,
            "lambda": 5,
            "drawnRed": 57,
            "reportedRed": 59,
            "inferredRed": 54,
            "playerTrialScore": -3,
            "oppTrialScore": 0,
            "playerTotalScore": -93,
            "oppTotalScore": -244,
            "waitTime": 6178.967665358736,
            "responseTime": 1642463337684,
            "catchQuestion": "How many <b class=\"r\">red<\/b> marbles did your opponent report drawing? ",
            "catchKey": -1,
            "catchResponse": -1,
            "catchTime": 1642463337684,
            "trialTime": 0
        },
        {
            "exptPart": "trial",
            "trialNumber": 51,
            "roleCurrent": "sender",
            "marblesSampled": 100,
            "probRed": 0.5,
            "lambda": 5,
            "drawnRed": 26,
            "reportedRed": 29,
            "inferredRed": 24,
            "playerTrialScore": 0,
            "oppTrialScore": -2,
            "playerTotalScore": -93,
            "oppTotalScore": -246,
            "waitTime": 2623.8260990250574,
            "responseTime": 1642463357447,
            "catchQuestion": "How many <b class=\"r\">red<\/b> marbles did your opponent report drawing? ",
            "catchKey": -1,
            "catchResponse": -1,
            "catchTime": 1642463337684,
            "trialTime": 0
        },
        {
            "exptPart": "trial",
            "trialNumber": 52,
            "roleCurrent": "receiver",
            "marblesSampled": 100,
            "probRed": 0.5,
            "lambda": 5,
            "drawnRed": 50,
            "reportedRed": 57,
            "inferredRed": 52,
            "playerTrialScore": -2,
            "oppTrialScore": 2,
            "playerTotalScore": -95,
            "oppTotalScore": -244,
            "waitTime": 7001.16753941206,
            "responseTime": 1642463374153,
            "catchQuestion": "How many <b class=\"r\">red<\/b> marbles did your opponent report drawing? ",
            "catchKey": -1,
            "catchResponse": -1,
            "catchTime": 1642463337684,
            "trialTime": 0
        },
        {
            "exptPart": "trial",
            "trialNumber": 53,
            "roleCurrent": "sender",
            "marblesSampled": 100,
            "probRed": 0.5,
            "lambda": 5,
            "drawnRed": 96,
            "reportedRed": 96,
            "inferredRed": 92,
            "playerTrialScore": 0,
            "oppTrialScore": -4,
            "playerTotalScore": -95,
            "oppTotalScore": -248,
            "waitTime": 2770.215444796303,
            "responseTime": 1642463385490,
            "catchQuestion": "How many <b class=\"r\">red<\/b> marbles did your opponent report drawing? ",
            "catchKey": -1,
            "catchResponse": -1,
            "catchTime": 1642463337684,
            "trialTime": 0
        },
        {
            "exptPart": "trial",
            "trialNumber": 54,
            "roleCurrent": "receiver",
            "marblesSampled": 100,
            "probRed": 0.5,
            "lambda": 5,
            "drawnRed": 52,
            "reportedRed": 61,
            "inferredRed": 55,
            "playerTrialScore": -3,
            "oppTrialScore": 3,
            "playerTotalScore": -98,
            "oppTotalScore": -245,
            "waitTime": 5762.137144952249,
            "responseTime": 1642463400375,
            "catchQuestion": "How many <b class=\"r\">red<\/b> marbles did your opponent report drawing? ",
            "catchKey": -1,
            "catchResponse": -1,
            "catchTime": 1642463337684,
            "trialTime": 0
        },
        {
            "exptPart": "trial",
            "trialNumber": 55,
            "roleCurrent": "sender",
            "marblesSampled": 100,
            "probRed": 0.5,
            "lambda": 5,
            "drawnRed": 82,
            "reportedRed": 82,
            "inferredRed": 77,
            "playerTrialScore": 0,
            "oppTrialScore": -5,
            "playerTotalScore": -98,
            "oppTotalScore": -250,
            "waitTime": 2305.2739781066075,
            "responseTime": 1642463409628,
            "catchQuestion": "How many <b class=\"r\">red<\/b> marbles did your opponent report drawing? ",
            "catchKey": -1,
            "catchResponse": -1,
            "catchTime": 1642463409629,
            "trialTime": 0
        },
        {
            "exptPart": "trial",
            "trialNumber": 56,
            "roleCurrent": "receiver",
            "marblesSampled": 100,
            "probRed": 0.5,
            "lambda": 5,
            "drawnRed": 38,
            "reportedRed": 43,
            "inferredRed": 37,
            "playerTrialScore": -1,
            "oppTrialScore": 0,
            "playerTotalScore": -99,
            "oppTotalScore": -250,
            "waitTime": 5215.023882356438,
            "responseTime": 1642463425572,
            "catchQuestion": "How many <b class=\"r\">red<\/b> marbles did your opponent report drawing? ",
            "catchKey": -1,
            "catchResponse": -1,
            "catchTime": 1642463409629,
            "trialTime": 0
        },
        {
            "exptPart": "trial",
            "trialNumber": 57,
            "roleCurrent": "sender",
            "marblesSampled": 100,
            "probRed": 0.5,
            "lambda": 5,
            "drawnRed": 44,
            "reportedRed": 32,
            "inferredRed": 26,
            "playerTrialScore": 0,
            "oppTrialScore": -18,
            "playerTotalScore": -99,
            "oppTotalScore": -268,
            "waitTime": 2526.6383626963325,
            "responseTime": 1642463447277,
            "catchQuestion": "How many <b class=\"r\">red<\/b> marbles did your opponent report drawing? ",
            "catchKey": -1,
            "catchResponse": -1,
            "catchTime": 1642463409629,
            "trialTime": 0
        },
        {
            "exptPart": "trial",
            "trialNumber": 58,
            "roleCurrent": "receiver",
            "marblesSampled": 100,
            "probRed": 0.5,
            "lambda": 5,
            "drawnRed": 81,
            "reportedRed": 85,
            "inferredRed": 78,
            "playerTrialScore": -3,
            "oppTrialScore": 0,
            "playerTotalScore": -102,
            "oppTotalScore": -268,
            "waitTime": 6879.604312011356,
            "responseTime": 1642463460464,
            "catchQuestion": "How many <b class=\"r\">red<\/b> marbles did your opponent report drawing? ",
            "catchKey": 85,
            "catchResponse": 85,
            "catchTime": 1642463460464,
            "trialTime": 0
        },
        {
            "exptPart": "trial",
            "trialNumber": 59,
            "roleCurrent": "sender",
            "marblesSampled": 100,
            "probRed": 0.5,
            "lambda": 5,
            "drawnRed": 20,
            "reportedRed": 19,
            "inferredRed": 14,
            "playerTrialScore": 0,
            "oppTrialScore": -6,
            "playerTotalScore": -102,
            "oppTotalScore": -274,
            "waitTime": 2207.267626660795,
            "responseTime": 1642463479294,
            "catchQuestion": "How many <b class=\"r\">red<\/b> marbles did your opponent report drawing? ",
            "catchKey": -1,
            "catchResponse": -1,
            "catchTime": 1642463460464,
            "trialTime": 0
        },
        {
            "exptPart": "trial",
            "trialNumber": 60,
            "roleCurrent": "receiver",
            "marblesSampled": 100,
            "probRed": 0.5,
            "lambda": 5,
            "drawnRed": 76,
            "reportedRed": 80,
            "inferredRed": 74,
            "playerTrialScore": -2,
            "oppTrialScore": 0,
            "playerTotalScore": -104,
            "oppTotalScore": -274,
            "waitTime": 5172.816483955579,
            "responseTime": 1642463491243,
            "catchQuestion": "How many <b class=\"r\">red<\/b> marbles did your opponent report drawing? ",
            "catchKey": 80,
            "catchResponse": 80,
            "catchTime": 1642463491243,
            "trialTime": 0
        },
        {
            "exptPart": "trial",
            "trialNumber": 61,
            "roleCurrent": "sender",
            "marblesSampled": 100,
            "probRed": 0.5,
            "lambda": 5,
            "drawnRed": 40,
            "reportedRed": 28,
            "inferredRed": 26,
            "playerTrialScore": 0,
            "oppTrialScore": -14,
            "playerTotalScore": -104,
            "oppTotalScore": -288,
            "waitTime": 2601.104307159585,
            "responseTime": 1642463535391,
            "catchQuestion": "How many <b class=\"r\">red<\/b> marbles did your opponent report drawing? ",
            "catchKey": -1,
            "catchResponse": -1,
            "catchTime": 1642463491243,
            "trialTime": 0
        },
        {
            "exptPart": "trial",
            "trialNumber": 62,
            "roleCurrent": "receiver",
            "marblesSampled": 100,
            "probRed": 0.5,
            "lambda": 5,
            "drawnRed": 72,
            "reportedRed": 78,
            "inferredRed": 71,
            "playerTrialScore": -1,
            "oppTrialScore": 0,
            "playerTotalScore": -105,
            "oppTotalScore": -288,
            "waitTime": 6328.245767748813,
            "responseTime": 1642463547472,
            "catchQuestion": "How many <b class=\"r\">red<\/b> marbles did your opponent report drawing? ",
            "catchKey": -1,
            "catchResponse": -1,
            "catchTime": 1642463491243,
            "trialTime": 0
        },
        {
            "exptPart": "trial",
            "trialNumber": 63,
            "roleCurrent": "sender",
            "marblesSampled": 100,
            "probRed": 0.5,
            "lambda": 5,
            "drawnRed": 61,
            "reportedRed": 76,
            "inferredRed": 68,
            "playerTrialScore": 7,
            "oppTrialScore": -7,
            "playerTotalScore": -98,
            "oppTotalScore": -295,
            "waitTime": 2996.9784853990404,
            "responseTime": 1642463573853,
            "catchQuestion": "How many <b class=\"r\">red<\/b> marbles did your opponent report drawing? ",
            "catchKey": -1,
            "catchResponse": -1,
            "catchTime": 1642463491243,
            "trialTime": 0
        },
        {
            "exptPart": "trial",
            "trialNumber": 64,
            "roleCurrent": "receiver",
            "marblesSampled": 100,
            "probRed": 0.5,
            "lambda": 5,
            "drawnRed": 31,
            "reportedRed": 36,
            "inferredRed": 39,
            "playerTrialScore": -8,
            "oppTrialScore": 8,
            "playerTotalScore": -106,
            "oppTotalScore": -287,
            "waitTime": 5156.112166418745,
            "responseTime": 1642463587164,
            "catchQuestion": "How many <b class=\"r\">red<\/b> marbles did your opponent report drawing? ",
            "catchKey": -1,
            "catchResponse": -1,
            "catchTime": 1642463491243,
            "trialTime": 0
        },
        {
            "exptPart": "trial",
            "trialNumber": 65,
            "roleCurrent": "sender",
            "marblesSampled": 100,
            "probRed": 0.5,
            "lambda": 5,
            "drawnRed": 63,
            "reportedRed": 71,
            "inferredRed": 66,
            "playerTrialScore": 3,
            "oppTrialScore": -3,
            "playerTotalScore": -103,
            "oppTotalScore": -290,
            "waitTime": 2203.3002686448713,
            "responseTime": 1642463606877,
            "catchQuestion": "How many <b class=\"r\">red<\/b> marbles did your opponent report drawing? ",
            "catchKey": -1,
            "catchResponse": -1,
            "catchTime": 1642463606877,
            "trialTime": 0
        },
        {
            "exptPart": "trial",
            "trialNumber": 66,
            "roleCurrent": "receiver",
            "marblesSampled": 100,
            "probRed": 0.5,
            "lambda": 5,
            "drawnRed": 31,
            "reportedRed": 38,
            "inferredRed": 38,
            "playerTrialScore": -7,
            "oppTrialScore": 7,
            "playerTotalScore": -110,
            "oppTotalScore": -283,
            "waitTime": 5314.746416385176,
            "responseTime": 1642463624362,
            "catchQuestion": "How many <b class=\"r\">red<\/b> marbles did your opponent report drawing? ",
            "catchKey": -1,
            "catchResponse": -1,
            "catchTime": 1642463606877,
            "trialTime": 0
        },
        {
            "exptPart": "trial",
            "trialNumber": 67,
            "roleCurrent": "sender",
            "marblesSampled": 100,
            "probRed": 0.5,
            "lambda": 5,
            "drawnRed": 35,
            "reportedRed": 31,
            "inferredRed": 29,
            "playerTrialScore": 0,
            "oppTrialScore": -6,
            "playerTotalScore": -110,
            "oppTotalScore": -289,
            "waitTime": 2801.3795849807498,
            "responseTime": 1642463644352,
            "catchQuestion": "How many <b class=\"r\">red<\/b> marbles did your opponent report drawing? ",
            "catchKey": -1,
            "catchResponse": -1,
            "catchTime": 1642463606877,
            "trialTime": 0
        },
        {
            "exptPart": "trial",
            "trialNumber": 68,
            "roleCurrent": "receiver",
            "marblesSampled": 100,
            "probRed": 0.5,
            "lambda": 5,
            "drawnRed": 70,
            "reportedRed": 75,
            "inferredRed": 70,
            "playerTrialScore": 0,
            "oppTrialScore": 0,
            "playerTotalScore": -110,
            "oppTotalScore": -289,
            "waitTime": 7407.445023988641,
            "responseTime": 1642463656611,
            "catchQuestion": "How many <b class=\"r\">red<\/b> marbles did your opponent report drawing? ",
            "catchKey": -1,
            "catchResponse": -1,
            "catchTime": 1642463606877,
            "trialTime": 0
        },
        {
            "exptPart": "trial",
            "trialNumber": 69,
            "roleCurrent": "sender",
            "marblesSampled": 100,
            "probRed": 0.5,
            "lambda": 5,
            "drawnRed": 82,
            "reportedRed": 82,
            "inferredRed": 77,
            "playerTrialScore": 0,
            "oppTrialScore": -5,
            "playerTotalScore": -110,
            "oppTotalScore": -294,
            "waitTime": 2353.9728899619945,
            "responseTime": 1642463665792,
            "catchQuestion": "How many <b class=\"r\">red<\/b> marbles did your opponent report drawing? ",
            "catchKey": -1,
            "catchResponse": -1,
            "catchTime": 1642463606877,
            "trialTime": 0
        },
        {
            "exptPart": "trial",
            "trialNumber": 70,
            "roleCurrent": "receiver",
            "marblesSampled": 100,
            "probRed": 0.5,
            "lambda": 5,
            "drawnRed": 20,
            "reportedRed": 25,
            "inferredRed": 28,
            "playerTrialScore": -8,
            "oppTrialScore": 8,
            "playerTotalScore": -118,
            "oppTotalScore": -286,
            "waitTime": 5257.25266535821,
            "responseTime": 1642463677321,
            "catchQuestion": "How many <b class=\"r\">red<\/b> marbles did your opponent report drawing? ",
            "catchKey": -1,
            "catchResponse": -1,
            "catchTime": 1642463677321,
            "trialTime": 0
        },
        {
            "exptPart": "trial",
            "trialNumber": 71,
            "roleCurrent": "sender",
            "marblesSampled": 100,
            "probRed": 0.5,
            "lambda": 5,
            "drawnRed": 49,
            "reportedRed": 76,
            "inferredRed": 71,
            "playerTrialScore": 22,
            "oppTrialScore": -22,
            "playerTotalScore": -96,
            "oppTotalScore": -308,
            "waitTime": 2687.8233151144536,
            "responseTime": 1642463720026,
            "catchQuestion": "How many <b class=\"r\">red<\/b> marbles did you actually draw (before any changes)? ",
            "catchKey": 49,
            "catchResponse": 49,
            "catchTime": 1642463720026,
            "trialTime": 0
        },
        {
            "exptPart": "trial",
            "trialNumber": 72,
            "roleCurrent": "receiver",
            "marblesSampled": 100,
            "probRed": 0.5,
            "lambda": 5,
            "drawnRed": 68,
            "reportedRed": 74,
            "inferredRed": 69,
            "playerTrialScore": -1,
            "oppTrialScore": 1,
            "playerTotalScore": -97,
            "oppTotalScore": -307,
            "waitTime": 5980.914249391096,
            "responseTime": 1642463742251,
            "catchQuestion": "How many <b class=\"r\">red<\/b> marbles did you actually draw (before any changes)? ",
            "catchKey": -1,
            "catchResponse": -1,
            "catchTime": 1642463720026,
            "trialTime": 0
        },
        {
            "exptPart": "trial",
            "trialNumber": 73,
            "roleCurrent": "sender",
            "marblesSampled": 100,
            "probRed": 0.5,
            "lambda": 5,
            "drawnRed": 83,
            "reportedRed": 83,
            "inferredRed": 75,
            "playerTrialScore": 0,
            "oppTrialScore": -8,
            "playerTotalScore": -97,
            "oppTotalScore": -315,
            "waitTime": 3082.296635609725,
            "responseTime": 1642463750965,
            "catchQuestion": "How many <b class=\"r\">red<\/b> marbles did you actually draw (before any changes)? ",
            "catchKey": -1,
            "catchResponse": -1,
            "catchTime": 1642463720026,
            "trialTime": 0
        },
        {
            "exptPart": "trial",
            "trialNumber": 74,
            "roleCurrent": "receiver",
            "marblesSampled": 100,
            "probRed": 0.5,
            "lambda": 5,
            "drawnRed": 37,
            "reportedRed": 44,
            "inferredRed": 43,
            "playerTrialScore": -6,
            "oppTrialScore": 6,
            "playerTotalScore": -103,
            "oppTotalScore": -309,
            "waitTime": 5135.985198195252,
            "responseTime": 1642463768955,
            "catchQuestion": "How many <b class=\"r\">red<\/b> marbles did you actually draw (before any changes)? ",
            "catchKey": -1,
            "catchResponse": -1,
            "catchTime": 1642463720026,
            "trialTime": 0
        },
        {
            "exptPart": "trial",
            "trialNumber": 75,
            "roleCurrent": "sender",
            "marblesSampled": 100,
            "probRed": 0.5,
            "lambda": 5,
            "drawnRed": 63,
            "reportedRed": 72,
            "inferredRed": 69,
            "playerTrialScore": 6,
            "oppTrialScore": -6,
            "playerTotalScore": -97,
            "oppTotalScore": -315,
            "waitTime": 2554.1657422705684,
            "responseTime": 1642463786590,
            "catchQuestion": "How many <b class=\"r\">red<\/b> marbles did you actually draw (before any changes)? ",
            "catchKey": -1,
            "catchResponse": -1,
            "catchTime": 1642463786590,
            "trialTime": 0
        },
        {
            "exptPart": "trial",
            "trialNumber": 76,
            "roleCurrent": "receiver",
            "marblesSampled": 100,
            "probRed": 0.5,
            "lambda": 5,
            "drawnRed": 52,
            "reportedRed": 58,
            "inferredRed": 53,
            "playerTrialScore": -1,
            "oppTrialScore": 1,
            "playerTotalScore": -98,
            "oppTotalScore": -314,
            "waitTime": 5613.715609804527,
            "responseTime": 1642463820641,
            "catchQuestion": "How many <b class=\"r\">red<\/b> marbles did you actually draw (before any changes)? ",
            "catchKey": -1,
            "catchResponse": -1,
            "catchTime": 1642463786590,
            "trialTime": 0
        },
        {
            "exptPart": "trial",
            "trialNumber": 77,
            "roleCurrent": "sender",
            "marblesSampled": 100,
            "probRed": 0.5,
            "lambda": 5,
            "drawnRed": 43,
            "reportedRed": 22,
            "inferredRed": 16,
            "playerTrialScore": 0,
            "oppTrialScore": -27,
            "playerTotalScore": -98,
            "oppTotalScore": -341,
            "waitTime": 2971.3157115337567,
            "responseTime": 1642463846406,
            "catchQuestion": "How many <b class=\"r\">red<\/b> marbles did you actually draw (before any changes)? ",
            "catchKey": -1,
            "catchResponse": -1,
            "catchTime": 1642463786590,
            "trialTime": 0
        },
        {
            "exptPart": "trial",
            "trialNumber": 78,
            "roleCurrent": "receiver",
            "marblesSampled": 100,
            "probRed": 0.5,
            "lambda": 5,
            "drawnRed": 54,
            "reportedRed": 61,
            "inferredRed": 57,
            "playerTrialScore": -3,
            "oppTrialScore": 3,
            "playerTotalScore": -101,
            "oppTotalScore": -338,
            "waitTime": 6074.8713862842515,
            "responseTime": 1642463857365,
            "catchQuestion": "How many <b class=\"r\">red<\/b> marbles did you actually draw (before any changes)? ",
            "catchKey": -1,
            "catchResponse": -1,
            "catchTime": 1642463786590,
            "trialTime": 0
        },
        {
            "exptPart": "trial",
            "trialNumber": 79,
            "roleCurrent": "sender",
            "marblesSampled": 100,
            "probRed": 0.5,
            "lambda": 5,
            "drawnRed": 41,
            "reportedRed": 24,
            "inferredRed": 21,
            "playerTrialScore": 0,
            "oppTrialScore": -20,
            "playerTotalScore": -101,
            "oppTotalScore": -358,
            "waitTime": 2933.755058781153,
            "responseTime": 1642463881202,
            "catchQuestion": "How many <b class=\"r\">red<\/b> marbles did you actually draw (before any changes)? ",
            "catchKey": -1,
            "catchResponse": -1,
            "catchTime": 1642463786590,
            "trialTime": 0
        },
        {
            "exptPart": "trial",
            "trialNumber": 80,
            "roleCurrent": "receiver",
            "marblesSampled": 100,
            "probRed": 0.5,
            "lambda": 5,
            "drawnRed": 61,
            "reportedRed": 69,
            "inferredRed": 65,
            "playerTrialScore": -4,
            "oppTrialScore": 4,
            "playerTotalScore": -105,
            "oppTotalScore": -354,
            "waitTime": 5148.200776382846,
            "responseTime": 1642463894951,
            "catchQuestion": "How many <b class=\"r\">red<\/b> marbles did you actually draw (before any changes)? ",
            "catchKey": -1,
            "catchResponse": -1,
            "catchTime": 1642463894952,
            "trialTime": 0
        },
        {
            "exptPart": "trial",
            "trialNumber": 81,
            "roleCurrent": "sender",
            "marblesSampled": 100,
            "probRed": 0.5,
            "lambda": 5,
            "drawnRed": 37,
            "reportedRed": 33,
            "inferredRed": 29,
            "playerTrialScore": 0,
            "oppTrialScore": -8,
            "playerTotalScore": -105,
            "oppTotalScore": -362,
            "waitTime": 2906.3657887041354,
            "responseTime": 1642463913951,
            "catchQuestion": "How many <b class=\"r\">red<\/b> marbles did you actually draw (before any changes)? ",
            "catchKey": -1,
            "catchResponse": -1,
            "catchTime": 1642463894952,
            "trialTime": 0
        },
        {
            "exptPart": "trial",
            "trialNumber": 82,
            "roleCurrent": "receiver",
            "marblesSampled": 100,
            "probRed": 0.5,
            "lambda": 5,
            "drawnRed": 76,
            "reportedRed": 79,
            "inferredRed": 74,
            "playerTrialScore": -2,
            "oppTrialScore": 0,
            "playerTotalScore": -107,
            "oppTotalScore": -362,
            "waitTime": 6652.545796064569,
            "responseTime": 1642463925874,
            "catchQuestion": "How many <b class=\"r\">red<\/b> marbles did you actually draw (before any changes)? ",
            "catchKey": -1,
            "catchResponse": -1,
            "catchTime": 1642463894952,
            "trialTime": 0
        },
        {
            "exptPart": "trial",
            "trialNumber": 83,
            "roleCurrent": "sender",
            "marblesSampled": 100,
            "probRed": 0.5,
            "lambda": 5,
            "drawnRed": 36,
            "reportedRed": 34,
            "inferredRed": 31,
            "playerTrialScore": 0,
            "oppTrialScore": -5,
            "playerTotalScore": -107,
            "oppTotalScore": -367,
            "waitTime": 2126.8163825568895,
            "responseTime": 1642463945557,
            "catchQuestion": "How many <b class=\"r\">red<\/b> marbles did you actually draw (before any changes)? ",
            "catchKey": 36,
            "catchResponse": 38,
            "catchTime": 1642463945558,
            "trialTime": 0
        },
        {
            "exptPart": "trial",
            "trialNumber": 84,
            "roleCurrent": "receiver",
            "marblesSampled": 100,
            "probRed": 0.5,
            "lambda": 5,
            "drawnRed": 16,
            "reportedRed": 20,
            "inferredRed": 25,
            "playerTrialScore": -9,
            "oppTrialScore": 9,
            "playerTotalScore": -116,
            "oppTotalScore": -358,
            "waitTime": 5313.878304545326,
            "responseTime": 1642463968041,
            "catchQuestion": "How many <b class=\"r\">red<\/b> marbles did you actually draw (before any changes)? ",
            "catchKey": -1,
            "catchResponse": -1,
            "catchTime": 1642463945558,
            "trialTime": 0
        },
        {
            "exptPart": "trial",
            "trialNumber": 85,
            "roleCurrent": "sender",
            "marblesSampled": 100,
            "probRed": 0.5,
            "lambda": 5,
            "drawnRed": 26,
            "reportedRed": 26,
            "inferredRed": 21,
            "playerTrialScore": 0,
            "oppTrialScore": -5,
            "playerTotalScore": -116,
            "oppTotalScore": -363,
            "waitTime": 2550.079781836035,
            "responseTime": 1642463977265,
            "catchQuestion": "How many <b class=\"r\">red<\/b> marbles did you actually draw (before any changes)? ",
            "catchKey": -1,
            "catchResponse": -1,
            "catchTime": 1642463977265,
            "trialTime": 0
        },
        {
            "exptPart": "trial",
            "trialNumber": 86,
            "roleCurrent": "receiver",
            "marblesSampled": 100,
            "probRed": 0.5,
            "lambda": 5,
            "drawnRed": 26,
            "reportedRed": 29,
            "inferredRed": 33,
            "playerTrialScore": -7,
            "oppTrialScore": 7,
            "playerTotalScore": -123,
            "oppTotalScore": -356,
            "waitTime": 7284.17905671755,
            "responseTime": 1642463991642,
            "catchQuestion": "How many <b class=\"r\">red<\/b> marbles did you actually draw (before any changes)? ",
            "catchKey": -1,
            "catchResponse": -1,
            "catchTime": 1642463977265,
            "trialTime": 0
        },
        {
            "exptPart": "trial",
            "trialNumber": 87,
            "roleCurrent": "sender",
            "marblesSampled": 100,
            "probRed": 0.5,
            "lambda": 5,
            "drawnRed": 76,
            "reportedRed": 76,
            "inferredRed": 71,
            "playerTrialScore": 0,
            "oppTrialScore": -5,
            "playerTotalScore": -123,
            "oppTotalScore": -361,
            "waitTime": 2222.5653088707013,
            "responseTime": 1642464000508,
            "catchQuestion": "How many <b class=\"r\">red<\/b> marbles did you actually draw (before any changes)? ",
            "catchKey": -1,
            "catchResponse": -1,
            "catchTime": 1642463977265,
            "trialTime": 0
        },
        {
            "exptPart": "trial",
            "trialNumber": 88,
            "roleCurrent": "receiver",
            "marblesSampled": 100,
            "probRed": 0.5,
            "lambda": 5,
            "drawnRed": 49,
            "reportedRed": 53,
            "inferredRed": 50,
            "playerTrialScore": -1,
            "oppTrialScore": 1,
            "playerTotalScore": -124,
            "oppTotalScore": -360,
            "waitTime": 6223.157867879196,
            "responseTime": 1642464011068,
            "catchQuestion": "How many <b class=\"r\">red<\/b> marbles did you actually draw (before any changes)? ",
            "catchKey": -1,
            "catchResponse": -1,
            "catchTime": 1642463977265,
            "trialTime": 0
        },
        {
            "exptPart": "trial",
            "trialNumber": 89,
            "roleCurrent": "sender",
            "marblesSampled": 100,
            "probRed": 0.5,
            "lambda": 5,
            "drawnRed": 18,
            "reportedRed": 18,
            "inferredRed": 16,
            "playerTrialScore": 0,
            "oppTrialScore": -2,
            "playerTotalScore": -124,
            "oppTotalScore": -362,
            "waitTime": 2859.3697282048333,
            "responseTime": 1642464020032,
            "catchQuestion": "How many <b class=\"r\">red<\/b> marbles did you actually draw (before any changes)? ",
            "catchKey": -1,
            "catchResponse": -1,
            "catchTime": 1642463977265,
            "trialTime": 0
        },
        {
            "exptPart": "trial",
            "trialNumber": 90,
            "roleCurrent": "receiver",
            "marblesSampled": 100,
            "probRed": 0.5,
            "lambda": 5,
            "drawnRed": 73,
            "reportedRed": 79,
            "inferredRed": 72,
            "playerTrialScore": -1,
            "oppTrialScore": 0,
            "playerTotalScore": -125,
            "oppTotalScore": -362,
            "waitTime": 6528.44818520339,
            "responseTime": 1642464031659,
            "catchQuestion": "How many <b class=\"r\">red<\/b> marbles did you actually draw (before any changes)? ",
            "catchKey": -1,
            "catchResponse": -1,
            "catchTime": 1642464031659,
            "trialTime": 0
        },
        {
            "exptPart": "trial",
            "trialNumber": 91,
            "roleCurrent": "sender",
            "marblesSampled": 100,
            "probRed": 0.5,
            "lambda": 5,
            "drawnRed": 86,
            "reportedRed": 86,
            "inferredRed": 83,
            "playerTrialScore": 0,
            "oppTrialScore": -3,
            "playerTotalScore": -125,
            "oppTotalScore": -365,
            "waitTime": 3073.392519413316,
            "responseTime": 1642464042661,
            "catchQuestion": "How many <b class=\"r\">red<\/b> marbles did you actually draw (before any changes)? ",
            "catchKey": -1,
            "catchResponse": -1,
            "catchTime": 1642464031659,
            "trialTime": 0
        },
        {
            "exptPart": "trial",
            "trialNumber": 92,
            "roleCurrent": "receiver",
            "marblesSampled": 100,
            "probRed": 0.5,
            "lambda": 5,
            "drawnRed": 21,
            "reportedRed": 28,
            "inferredRed": 28,
            "playerTrialScore": -7,
            "oppTrialScore": 7,
            "playerTotalScore": -132,
            "oppTotalScore": -358,
            "waitTime": 5421.0488151970685,
            "responseTime": 1642464056114,
            "catchQuestion": "How many <b class=\"r\">red<\/b> marbles did you actually draw (before any changes)? ",
            "catchKey": -1,
            "catchResponse": -1,
            "catchTime": 1642464031659,
            "trialTime": 0
        },
        {
            "exptPart": "trial",
            "trialNumber": 93,
            "roleCurrent": "sender",
            "marblesSampled": 100,
            "probRed": 0.5,
            "lambda": 5,
            "drawnRed": 19,
            "reportedRed": 19,
            "inferredRed": 14,
            "playerTrialScore": 0,
            "oppTrialScore": -5,
            "playerTotalScore": -132,
            "oppTotalScore": -363,
            "waitTime": 2197.1739793973943,
            "responseTime": 1642464063525,
            "catchQuestion": "How many <b class=\"r\">red<\/b> marbles did you actually draw (before any changes)? ",
            "catchKey": 19,
            "catchResponse": 19,
            "catchTime": 1642464063525,
            "trialTime": 0
        },
        {
            "exptPart": "trial",
            "trialNumber": 94,
            "roleCurrent": "receiver",
            "marblesSampled": 100,
            "probRed": 0.5,
            "lambda": 5,
            "drawnRed": 73,
            "reportedRed": 79,
            "inferredRed": 74,
            "playerTrialScore": -1,
            "oppTrialScore": 1,
            "playerTotalScore": -133,
            "oppTotalScore": -362,
            "waitTime": 6259.693315707516,
            "responseTime": 1642464083391,
            "catchQuestion": "How many <b class=\"r\">red<\/b> marbles did you actually draw (before any changes)? ",
            "catchKey": -1,
            "catchResponse": -1,
            "catchTime": 1642464063525,
            "trialTime": 0
        },
        {
            "exptPart": "trial",
            "trialNumber": 95,
            "roleCurrent": "sender",
            "marblesSampled": 100,
            "probRed": 0.5,
            "lambda": 5,
            "drawnRed": 46,
            "reportedRed": 32,
            "inferredRed": 24,
            "playerTrialScore": 0,
            "oppTrialScore": -22,
            "playerTotalScore": -133,
            "oppTotalScore": -384,
            "waitTime": 3027.3544711556615,
            "responseTime": 1642464104380,
            "catchQuestion": "How many <b class=\"r\">red<\/b> marbles did you actually draw (before any changes)? ",
            "catchKey": -1,
            "catchResponse": -1,
            "catchTime": 1642464104380,
            "trialTime": 0
        },
        {
            "exptPart": "trial",
            "trialNumber": 96,
            "roleCurrent": "receiver",
            "marblesSampled": 100,
            "probRed": 0.5,
            "lambda": 5,
            "drawnRed": 14,
            "reportedRed": 18,
            "inferredRed": 23,
            "playerTrialScore": -9,
            "oppTrialScore": 9,
            "playerTotalScore": -142,
            "oppTotalScore": -375,
            "waitTime": 5726.28935076684,
            "responseTime": 1642464117603,
            "catchQuestion": "How many <b class=\"r\">red<\/b> marbles did you actually draw (before any changes)? ",
            "catchKey": -1,
            "catchResponse": -1,
            "catchTime": 1642464104380,
            "trialTime": 0
        },
        {
            "exptPart": "trial",
            "trialNumber": 97,
            "roleCurrent": "sender",
            "marblesSampled": 100,
            "probRed": 0.5,
            "lambda": 5,
            "drawnRed": 66,
            "reportedRed": 81,
            "inferredRed": 77,
            "playerTrialScore": 11,
            "oppTrialScore": -11,
            "playerTotalScore": -131,
            "oppTotalScore": -386,
            "waitTime": 2585.419697688142,
            "responseTime": 1642464139956,
            "catchQuestion": "How many <b class=\"r\">red<\/b> marbles did you actually draw (before any changes)? ",
            "catchKey": -1,
            "catchResponse": -1,
            "catchTime": 1642464104380,
            "trialTime": 0
        },
        {
            "exptPart": "trial",
            "trialNumber": 98,
            "roleCurrent": "receiver",
            "marblesSampled": 100,
            "probRed": 0.5,
            "lambda": 5,
            "drawnRed": 72,
            "reportedRed": 76,
            "inferredRed": 70,
            "playerTrialScore": -2,
            "oppTrialScore": 0,
            "playerTotalScore": -133,
            "oppTotalScore": -386,
            "waitTime": 5635.193970657181,
            "responseTime": 1642464149731,
            "catchQuestion": "How many <b class=\"r\">red<\/b> marbles did you actually draw (before any changes)? ",
            "catchKey": -1,
            "catchResponse": -1,
            "catchTime": 1642464104380,
            "trialTime": 0
        },
        {
            "exptPart": "trial",
            "trialNumber": 99,
            "roleCurrent": "sender",
            "marblesSampled": 100,
            "probRed": 0.5,
            "lambda": 5,
            "drawnRed": 54,
            "reportedRed": 75,
            "inferredRed": 71,
            "playerTrialScore": 17,
            "oppTrialScore": -17,
            "playerTotalScore": -116,
            "oppTotalScore": -403,
            "waitTime": 2147.0901609631173,
            "responseTime": 1642464179348,
            "catchQuestion": "How many <b class=\"r\">red<\/b> marbles did you actually draw (before any changes)? ",
            "catchKey": -1,
            "catchResponse": -1,
            "catchTime": 1642464104380,
            "trialTime": 0
        },
        {
            "exptPart": "trial",
            "trialNumber": 100,
            "roleCurrent": "receiver",
            "marblesSampled": 100,
            "probRed": 0.5,
            "lambda": 5,
            "drawnRed": 37,
            "reportedRed": 39,
            "inferredRed": 36,
            "playerTrialScore": -1,
            "oppTrialScore": 0,
            "playerTotalScore": -117,
            "oppTotalScore": -403,
            "waitTime": 5202.442538359406,
            "responseTime": 1642464190294,
            "catchQuestion": "How many <b class=\"r\">red<\/b> marbles did your opponent report drawing? ",
            "catchKey": 39,
            "catchResponse": 39,
            "catchTime": 1642464190295,
            "trialTime": 0
        }
    ]
}