{
    "client": {
        "type": "sona",
        "experiment_id": 2228,
        "credit_token": "b315147ae43241ea9c65086cb510cfb7",
        "survey_code": "40539",
        "sid": "sona-40539",
        "window": {
            "width": 1193,
            "height": 729
        },
        "screen": {
            "width": 1440,
            "height": 900
        },
        "userAgent": "Mozilla\/5.0 (Macintosh; Intel Mac OS X 10_15_7) AppleWebKit\/537.36 (KHTML, like Gecko) Chrome\/96.0.4664.110 Safari\/537.36",
        "score": 0,
        "bonus": 0
    },
    "expt": {
        "saveURL": "submit.simple.php",
        "trials": 100,
        "practiceTrials": 2,
        "marblesSampled": 100,
        "probRed": 0.5,
        "lambdaAI": 5,
        "roleFirst": "sender",
        "roles": [
            "sender",
            "receiver"
        ],
        "cost": "unif",
        "goal": "over",
        "catchTrials": [
            75,
            4,
            19,
            15,
            60,
            51,
            16,
            90,
            36,
            23
        ],
        "scoreTotal": {
            "player": -222,
            "opp": -596
        },
        "sona": {
            "experiment_id": 2228,
            "credit_token": "b315147ae43241ea9c65086cb510cfb7"
        },
        "pilot": false,
        "debug": false
    },
    "trials": [
        {
            "exptPart": "practice",
            "trialNumber": 1,
            "roleCurrent": "sender",
            "marblesSampled": 100,
            "probRed": 0.5,
            "lambda": 5,
            "drawnRed": 85,
            "reportedRed": 75,
            "inferredRed": 71,
            "playerTrialScore": 0,
            "oppTrialScore": -14,
            "playerTotalScore": 0,
            "oppTotalScore": -14,
            "waitTime": 2175.4919433283926,
            "responseTime": 1642576882738,
            "catchQuestion": "How many <b class=\"r\">red<\/b> marbles did you actually draw (before any changes)? ",
            "catchKey": 85,
            "catchResponse": 85,
            "catchTime": 1642576882739,
            "trialTime": 0
        },
        {
            "exptPart": "practice",
            "trialNumber": 2,
            "roleCurrent": "receiver",
            "marblesSampled": 100,
            "probRed": 0.5,
            "lambda": 5,
            "drawnRed": 38,
            "reportedRed": 43,
            "inferredRed": 43,
            "playerTrialScore": -5,
            "oppTrialScore": 5,
            "playerTotalScore": -5,
            "oppTotalScore": -9,
            "waitTime": 6365.687213434303,
            "responseTime": 1642576929203,
            "catchQuestion": "How many <b class=\"r\">red<\/b> marbles did your opponent report drawing? ",
            "catchKey": 43,
            "catchResponse": 43,
            "catchTime": 1642576929203,
            "trialTime": 0
        },
        {
            "exptPart": "trial",
            "trialNumber": 1,
            "roleCurrent": "sender",
            "marblesSampled": 100,
            "probRed": 0.5,
            "lambda": 5,
            "drawnRed": 52,
            "reportedRed": 52,
            "inferredRed": 48,
            "playerTrialScore": 0,
            "oppTrialScore": -4,
            "playerTotalScore": 0,
            "oppTotalScore": -4,
            "waitTime": 2926.617742962315,
            "responseTime": 1642576953456,
            "catchQuestion": "How many <b class=\"r\">red<\/b> marbles did your opponent report drawing? ",
            "catchKey": -1,
            "catchResponse": -1,
            "catchTime": 1642576929203,
            "trialTime": 0
        },
        {
            "exptPart": "trial",
            "trialNumber": 2,
            "roleCurrent": "receiver",
            "marblesSampled": 100,
            "probRed": 0.5,
            "lambda": 5,
            "drawnRed": 30,
            "reportedRed": 33,
            "inferredRed": 25,
            "playerTrialScore": -5,
            "oppTrialScore": 0,
            "playerTotalScore": -5,
            "oppTotalScore": -4,
            "waitTime": 5303.730495176758,
            "responseTime": 1642576965420,
            "catchQuestion": "How many <b class=\"r\">red<\/b> marbles did your opponent report drawing? ",
            "catchKey": -1,
            "catchResponse": -1,
            "catchTime": 1642576929203,
            "trialTime": 0
        },
        {
            "exptPart": "trial",
            "trialNumber": 3,
            "roleCurrent": "sender",
            "marblesSampled": 100,
            "probRed": 0.5,
            "lambda": 5,
            "drawnRed": 53,
            "reportedRed": 53,
            "inferredRed": 50,
            "playerTrialScore": 0,
            "oppTrialScore": -3,
            "playerTotalScore": -5,
            "oppTotalScore": -7,
            "waitTime": 2295.2237185189197,
            "responseTime": 1642576973421,
            "catchQuestion": "How many <b class=\"r\">red<\/b> marbles did your opponent report drawing? ",
            "catchKey": -1,
            "catchResponse": -1,
            "catchTime": 1642576929203,
            "trialTime": 0
        },
        {
            "exptPart": "trial",
            "trialNumber": 4,
            "roleCurrent": "receiver",
            "marblesSampled": 100,
            "probRed": 0.5,
            "lambda": 5,
            "drawnRed": 49,
            "reportedRed": 58,
            "inferredRed": 46,
            "playerTrialScore": -3,
            "oppTrialScore": 0,
            "playerTotalScore": -8,
            "oppTotalScore": -7,
            "waitTime": 7178.923379926543,
            "responseTime": 1642576987437,
            "catchQuestion": "How many <b class=\"r\">red<\/b> marbles did your opponent report drawing? ",
            "catchKey": -1,
            "catchResponse": -1,
            "catchTime": 1642576929203,
            "trialTime": 0
        },
        {
            "exptPart": "trial",
            "trialNumber": 5,
            "roleCurrent": "sender",
            "marblesSampled": 100,
            "probRed": 0.5,
            "lambda": 5,
            "drawnRed": 49,
            "reportedRed": 49,
            "inferredRed": 42,
            "playerTrialScore": 0,
            "oppTrialScore": -7,
            "playerTotalScore": -8,
            "oppTotalScore": -14,
            "waitTime": 2146.847681648839,
            "responseTime": 1642576994570,
            "catchQuestion": "How many <b class=\"r\">red<\/b> marbles did you actually draw (before any changes)? ",
            "catchKey": 49,
            "catchResponse": 48,
            "catchTime": 1642576994570,
            "trialTime": 0
        },
        {
            "exptPart": "trial",
            "trialNumber": 6,
            "roleCurrent": "receiver",
            "marblesSampled": 100,
            "probRed": 0.5,
            "lambda": 5,
            "drawnRed": 22,
            "reportedRed": 26,
            "inferredRed": 20,
            "playerTrialScore": -2,
            "oppTrialScore": 0,
            "playerTotalScore": -10,
            "oppTotalScore": -14,
            "waitTime": 5189.309655602761,
            "responseTime": 1642577020153,
            "catchQuestion": "How many <b class=\"r\">red<\/b> marbles did you actually draw (before any changes)? ",
            "catchKey": -1,
            "catchResponse": -1,
            "catchTime": 1642576994570,
            "trialTime": 0
        },
        {
            "exptPart": "trial",
            "trialNumber": 7,
            "roleCurrent": "sender",
            "marblesSampled": 100,
            "probRed": 0.5,
            "lambda": 5,
            "drawnRed": 40,
            "reportedRed": 40,
            "inferredRed": 29,
            "playerTrialScore": 0,
            "oppTrialScore": -11,
            "playerTotalScore": -10,
            "oppTotalScore": -25,
            "waitTime": 2609.5254789530136,
            "responseTime": 1642577028487,
            "catchQuestion": "How many <b class=\"r\">red<\/b> marbles did you actually draw (before any changes)? ",
            "catchKey": -1,
            "catchResponse": -1,
            "catchTime": 1642576994570,
            "trialTime": 0
        },
        {
            "exptPart": "trial",
            "trialNumber": 8,
            "roleCurrent": "receiver",
            "marblesSampled": 100,
            "probRed": 0.5,
            "lambda": 5,
            "drawnRed": 73,
            "reportedRed": 81,
            "inferredRed": 70,
            "playerTrialScore": -3,
            "oppTrialScore": 0,
            "playerTotalScore": -13,
            "oppTotalScore": -25,
            "waitTime": 7011.298831418646,
            "responseTime": 1642577040003,
            "catchQuestion": "How many <b class=\"r\">red<\/b> marbles did you actually draw (before any changes)? ",
            "catchKey": -1,
            "catchResponse": -1,
            "catchTime": 1642576994570,
            "trialTime": 0
        },
        {
            "exptPart": "trial",
            "trialNumber": 9,
            "roleCurrent": "sender",
            "marblesSampled": 100,
            "probRed": 0.5,
            "lambda": 5,
            "drawnRed": 40,
            "reportedRed": 40,
            "inferredRed": 34,
            "playerTrialScore": 0,
            "oppTrialScore": -6,
            "playerTotalScore": -13,
            "oppTotalScore": -31,
            "waitTime": 2083.4394281077452,
            "responseTime": 1642577049437,
            "catchQuestion": "How many <b class=\"r\">red<\/b> marbles did you actually draw (before any changes)? ",
            "catchKey": -1,
            "catchResponse": -1,
            "catchTime": 1642576994570,
            "trialTime": 0
        },
        {
            "exptPart": "trial",
            "trialNumber": 10,
            "roleCurrent": "receiver",
            "marblesSampled": 100,
            "probRed": 0.5,
            "lambda": 5,
            "drawnRed": 88,
            "reportedRed": 93,
            "inferredRed": 82,
            "playerTrialScore": -6,
            "oppTrialScore": 0,
            "playerTotalScore": -19,
            "oppTotalScore": -31,
            "waitTime": 5401.272593787176,
            "responseTime": 1642577060786,
            "catchQuestion": "How many <b class=\"r\">red<\/b> marbles did you actually draw (before any changes)? ",
            "catchKey": -1,
            "catchResponse": -1,
            "catchTime": 1642577060786,
            "trialTime": 0
        },
        {
            "exptPart": "trial",
            "trialNumber": 11,
            "roleCurrent": "sender",
            "marblesSampled": 100,
            "probRed": 0.5,
            "lambda": 5,
            "drawnRed": 35,
            "reportedRed": 35,
            "inferredRed": 33,
            "playerTrialScore": 0,
            "oppTrialScore": -2,
            "playerTotalScore": -19,
            "oppTotalScore": -33,
            "waitTime": 2787.2443079460354,
            "responseTime": 1642577070688,
            "catchQuestion": "How many <b class=\"r\">red<\/b> marbles did you actually draw (before any changes)? ",
            "catchKey": -1,
            "catchResponse": -1,
            "catchTime": 1642577060786,
            "trialTime": 0
        },
        {
            "exptPart": "trial",
            "trialNumber": 12,
            "roleCurrent": "receiver",
            "marblesSampled": 100,
            "probRed": 0.5,
            "lambda": 5,
            "drawnRed": 49,
            "reportedRed": 53,
            "inferredRed": 50,
            "playerTrialScore": -1,
            "oppTrialScore": 1,
            "playerTotalScore": -20,
            "oppTotalScore": -32,
            "waitTime": 7400.026076878909,
            "responseTime": 1642577082586,
            "catchQuestion": "How many <b class=\"r\">red<\/b> marbles did you actually draw (before any changes)? ",
            "catchKey": -1,
            "catchResponse": -1,
            "catchTime": 1642577060786,
            "trialTime": 0
        },
        {
            "exptPart": "trial",
            "trialNumber": 13,
            "roleCurrent": "sender",
            "marblesSampled": 100,
            "probRed": 0.5,
            "lambda": 5,
            "drawnRed": 59,
            "reportedRed": 59,
            "inferredRed": 52,
            "playerTrialScore": 0,
            "oppTrialScore": -7,
            "playerTotalScore": -20,
            "oppTotalScore": -39,
            "waitTime": 2212.970823370326,
            "responseTime": 1642577089621,
            "catchQuestion": "How many <b class=\"r\">red<\/b> marbles did you actually draw (before any changes)? ",
            "catchKey": -1,
            "catchResponse": -1,
            "catchTime": 1642577060786,
            "trialTime": 0
        },
        {
            "exptPart": "trial",
            "trialNumber": 14,
            "roleCurrent": "receiver",
            "marblesSampled": 100,
            "probRed": 0.5,
            "lambda": 5,
            "drawnRed": 39,
            "reportedRed": 44,
            "inferredRed": 30,
            "playerTrialScore": -9,
            "oppTrialScore": 0,
            "playerTotalScore": -29,
            "oppTotalScore": -39,
            "waitTime": 5949.2102695524545,
            "responseTime": 1642577100102,
            "catchQuestion": "How many <b class=\"r\">red<\/b> marbles did you actually draw (before any changes)? ",
            "catchKey": -1,
            "catchResponse": -1,
            "catchTime": 1642577060786,
            "trialTime": 0
        },
        {
            "exptPart": "trial",
            "trialNumber": 15,
            "roleCurrent": "sender",
            "marblesSampled": 100,
            "probRed": 0.5,
            "lambda": 5,
            "drawnRed": 77,
            "reportedRed": 77,
            "inferredRed": 70,
            "playerTrialScore": 0,
            "oppTrialScore": -7,
            "playerTotalScore": -29,
            "oppTotalScore": -46,
            "waitTime": 2905.606557875184,
            "responseTime": 1642577107887,
            "catchQuestion": "How many <b class=\"r\">red<\/b> marbles did you actually draw (before any changes)? ",
            "catchKey": -1,
            "catchResponse": -1,
            "catchTime": 1642577107888,
            "trialTime": 0
        },
        {
            "exptPart": "trial",
            "trialNumber": 16,
            "roleCurrent": "receiver",
            "marblesSampled": 100,
            "probRed": 0.5,
            "lambda": 5,
            "drawnRed": 14,
            "reportedRed": 21,
            "inferredRed": 17,
            "playerTrialScore": -3,
            "oppTrialScore": 3,
            "playerTotalScore": -32,
            "oppTotalScore": -43,
            "waitTime": 6490.056445456216,
            "responseTime": 1642577119837,
            "catchQuestion": "How many <b class=\"r\">red<\/b> marbles did your opponent report drawing? ",
            "catchKey": 21,
            "catchResponse": 23,
            "catchTime": 1642577119837,
            "trialTime": 0
        },
        {
            "exptPart": "trial",
            "trialNumber": 17,
            "roleCurrent": "sender",
            "marblesSampled": 100,
            "probRed": 0.5,
            "lambda": 5,
            "drawnRed": 49,
            "reportedRed": 49,
            "inferredRed": 44,
            "playerTrialScore": 0,
            "oppTrialScore": -5,
            "playerTotalScore": -32,
            "oppTotalScore": -48,
            "waitTime": 2619.975446855193,
            "responseTime": 1642577141003,
            "catchQuestion": "How many <b class=\"r\">red<\/b> marbles did you actually draw (before any changes)? ",
            "catchKey": 49,
            "catchResponse": 43,
            "catchTime": 1642577141003,
            "trialTime": 0
        },
        {
            "exptPart": "trial",
            "trialNumber": 18,
            "roleCurrent": "receiver",
            "marblesSampled": 100,
            "probRed": 0.5,
            "lambda": 5,
            "drawnRed": 68,
            "reportedRed": 72,
            "inferredRed": 65,
            "playerTrialScore": -3,
            "oppTrialScore": 0,
            "playerTotalScore": -35,
            "oppTotalScore": -48,
            "waitTime": 6451.8190997474985,
            "responseTime": 1642577162320,
            "catchQuestion": "How many <b class=\"r\">red<\/b> marbles did you actually draw (before any changes)? ",
            "catchKey": -1,
            "catchResponse": -1,
            "catchTime": 1642577141003,
            "trialTime": 0
        },
        {
            "exptPart": "trial",
            "trialNumber": 19,
            "roleCurrent": "sender",
            "marblesSampled": 100,
            "probRed": 0.5,
            "lambda": 5,
            "drawnRed": 46,
            "reportedRed": 36,
            "inferredRed": 33,
            "playerTrialScore": 0,
            "oppTrialScore": -13,
            "playerTotalScore": -35,
            "oppTotalScore": -61,
            "waitTime": 2465.1629898141136,
            "responseTime": 1642577182905,
            "catchQuestion": "How many <b class=\"r\">red<\/b> marbles did you actually draw (before any changes)? ",
            "catchKey": -1,
            "catchResponse": -1,
            "catchTime": 1642577141003,
            "trialTime": 0
        },
        {
            "exptPart": "trial",
            "trialNumber": 20,
            "roleCurrent": "receiver",
            "marblesSampled": 100,
            "probRed": 0.5,
            "lambda": 5,
            "drawnRed": 69,
            "reportedRed": 71,
            "inferredRed": 68,
            "playerTrialScore": -1,
            "oppTrialScore": 0,
            "playerTotalScore": -36,
            "oppTotalScore": -61,
            "waitTime": 6190.074366088541,
            "responseTime": 1642577194186,
            "catchQuestion": "How many <b class=\"r\">red<\/b> marbles did your opponent report drawing? ",
            "catchKey": 71,
            "catchResponse": 71,
            "catchTime": 1642577194186,
            "trialTime": 0
        },
        {
            "exptPart": "trial",
            "trialNumber": 21,
            "roleCurrent": "sender",
            "marblesSampled": 100,
            "probRed": 0.5,
            "lambda": 5,
            "drawnRed": 45,
            "reportedRed": 29,
            "inferredRed": 26,
            "playerTrialScore": 0,
            "oppTrialScore": -19,
            "playerTotalScore": -36,
            "oppTotalScore": -80,
            "waitTime": 2354.4942142919226,
            "responseTime": 1642577220804,
            "catchQuestion": "How many <b class=\"r\">red<\/b> marbles did your opponent report drawing? ",
            "catchKey": -1,
            "catchResponse": -1,
            "catchTime": 1642577194186,
            "trialTime": 0
        },
        {
            "exptPart": "trial",
            "trialNumber": 22,
            "roleCurrent": "receiver",
            "marblesSampled": 100,
            "probRed": 0.5,
            "lambda": 5,
            "drawnRed": 27,
            "reportedRed": 34,
            "inferredRed": 26,
            "playerTrialScore": -1,
            "oppTrialScore": 0,
            "playerTotalScore": -37,
            "oppTotalScore": -80,
            "waitTime": 5224.581245711719,
            "responseTime": 1642577232453,
            "catchQuestion": "How many <b class=\"r\">red<\/b> marbles did your opponent report drawing? ",
            "catchKey": -1,
            "catchResponse": -1,
            "catchTime": 1642577194186,
            "trialTime": 0
        },
        {
            "exptPart": "trial",
            "trialNumber": 23,
            "roleCurrent": "sender",
            "marblesSampled": 100,
            "probRed": 0.5,
            "lambda": 5,
            "drawnRed": 28,
            "reportedRed": 48,
            "inferredRed": 44,
            "playerTrialScore": 16,
            "oppTrialScore": -16,
            "playerTotalScore": -21,
            "oppTotalScore": -96,
            "waitTime": 2315.7515148536904,
            "responseTime": 1642577251820,
            "catchQuestion": "How many <b class=\"r\">red<\/b> marbles did your opponent report drawing? ",
            "catchKey": -1,
            "catchResponse": -1,
            "catchTime": 1642577194186,
            "trialTime": 0
        },
        {
            "exptPart": "trial",
            "trialNumber": 24,
            "roleCurrent": "receiver",
            "marblesSampled": 100,
            "probRed": 0.5,
            "lambda": 5,
            "drawnRed": 47,
            "reportedRed": 50,
            "inferredRed": 45,
            "playerTrialScore": -2,
            "oppTrialScore": 0,
            "playerTotalScore": -23,
            "oppTotalScore": -96,
            "waitTime": 6881.316576234186,
            "responseTime": 1642577262868,
            "catchQuestion": "How many <b class=\"r\">red<\/b> marbles did your opponent report drawing? ",
            "catchKey": 50,
            "catchResponse": 50,
            "catchTime": 1642577262868,
            "trialTime": 0
        },
        {
            "exptPart": "trial",
            "trialNumber": 25,
            "roleCurrent": "sender",
            "marblesSampled": 100,
            "probRed": 0.5,
            "lambda": 5,
            "drawnRed": 46,
            "reportedRed": 49,
            "inferredRed": 40,
            "playerTrialScore": 0,
            "oppTrialScore": -6,
            "playerTotalScore": -23,
            "oppTotalScore": -102,
            "waitTime": 2487.251001626095,
            "responseTime": 1642577281953,
            "catchQuestion": "How many <b class=\"r\">red<\/b> marbles did your opponent report drawing? ",
            "catchKey": -1,
            "catchResponse": -1,
            "catchTime": 1642577281953,
            "trialTime": 0
        },
        {
            "exptPart": "trial",
            "trialNumber": 26,
            "roleCurrent": "receiver",
            "marblesSampled": 100,
            "probRed": 0.5,
            "lambda": 5,
            "drawnRed": 22,
            "reportedRed": 30,
            "inferredRed": 20,
            "playerTrialScore": -2,
            "oppTrialScore": 0,
            "playerTotalScore": -25,
            "oppTotalScore": -102,
            "waitTime": 5561.029503348629,
            "responseTime": 1642577294119,
            "catchQuestion": "How many <b class=\"r\">red<\/b> marbles did your opponent report drawing? ",
            "catchKey": -1,
            "catchResponse": -1,
            "catchTime": 1642577281953,
            "trialTime": 0
        },
        {
            "exptPart": "trial",
            "trialNumber": 27,
            "roleCurrent": "sender",
            "marblesSampled": 100,
            "probRed": 0.5,
            "lambda": 5,
            "drawnRed": 26,
            "reportedRed": 60,
            "inferredRed": 55,
            "playerTrialScore": 29,
            "oppTrialScore": -29,
            "playerTotalScore": 4,
            "oppTotalScore": -131,
            "waitTime": 2798.9173132947017,
            "responseTime": 1642577327688,
            "catchQuestion": "How many <b class=\"r\">red<\/b> marbles did your opponent report drawing? ",
            "catchKey": -1,
            "catchResponse": -1,
            "catchTime": 1642577281953,
            "trialTime": 0
        },
        {
            "exptPart": "trial",
            "trialNumber": 28,
            "roleCurrent": "receiver",
            "marblesSampled": 100,
            "probRed": 0.5,
            "lambda": 5,
            "drawnRed": 74,
            "reportedRed": 83,
            "inferredRed": 45,
            "playerTrialScore": -29,
            "oppTrialScore": 0,
            "playerTotalScore": -25,
            "oppTotalScore": -131,
            "waitTime": 6011.950775077059,
            "responseTime": 1642577338152,
            "catchQuestion": "How many <b class=\"r\">red<\/b> marbles did your opponent report drawing? ",
            "catchKey": -1,
            "catchResponse": -1,
            "catchTime": 1642577281953,
            "trialTime": 0
        },
        {
            "exptPart": "trial",
            "trialNumber": 29,
            "roleCurrent": "sender",
            "marblesSampled": 100,
            "probRed": 0.5,
            "lambda": 5,
            "drawnRed": 58,
            "reportedRed": 75,
            "inferredRed": 68,
            "playerTrialScore": 10,
            "oppTrialScore": -10,
            "playerTotalScore": -15,
            "oppTotalScore": -141,
            "waitTime": 2495.0324604333127,
            "responseTime": 1642577358903,
            "catchQuestion": "How many <b class=\"r\">red<\/b> marbles did your opponent report drawing? ",
            "catchKey": -1,
            "catchResponse": -1,
            "catchTime": 1642577281953,
            "trialTime": 0
        },
        {
            "exptPart": "trial",
            "trialNumber": 30,
            "roleCurrent": "receiver",
            "marblesSampled": 100,
            "probRed": 0.5,
            "lambda": 5,
            "drawnRed": 54,
            "reportedRed": 57,
            "inferredRed": 46,
            "playerTrialScore": -8,
            "oppTrialScore": 0,
            "playerTotalScore": -23,
            "oppTotalScore": -141,
            "waitTime": 5740.4695245329285,
            "responseTime": 1642577369002,
            "catchQuestion": "How many <b class=\"r\">red<\/b> marbles did your opponent report drawing? ",
            "catchKey": -1,
            "catchResponse": -1,
            "catchTime": 1642577369002,
            "trialTime": 0
        },
        {
            "exptPart": "trial",
            "trialNumber": 31,
            "roleCurrent": "sender",
            "marblesSampled": 100,
            "probRed": 0.5,
            "lambda": 5,
            "drawnRed": 17,
            "reportedRed": 21,
            "inferredRed": 18,
            "playerTrialScore": 1,
            "oppTrialScore": -1,
            "playerTotalScore": -22,
            "oppTotalScore": -142,
            "waitTime": 3194.1463431748803,
            "responseTime": 1642577384753,
            "catchQuestion": "How many <b class=\"r\">red<\/b> marbles did your opponent report drawing? ",
            "catchKey": -1,
            "catchResponse": -1,
            "catchTime": 1642577369002,
            "trialTime": 0
        },
        {
            "exptPart": "trial",
            "trialNumber": 32,
            "roleCurrent": "receiver",
            "marblesSampled": 100,
            "probRed": 0.5,
            "lambda": 5,
            "drawnRed": 44,
            "reportedRed": 46,
            "inferredRed": 35,
            "playerTrialScore": -9,
            "oppTrialScore": 0,
            "playerTotalScore": -31,
            "oppTotalScore": -142,
            "waitTime": 5228.432091947942,
            "responseTime": 1642577394602,
            "catchQuestion": "How many <b class=\"r\">red<\/b> marbles did your opponent report drawing? ",
            "catchKey": -1,
            "catchResponse": -1,
            "catchTime": 1642577369002,
            "trialTime": 0
        },
        {
            "exptPart": "trial",
            "trialNumber": 33,
            "roleCurrent": "sender",
            "marblesSampled": 100,
            "probRed": 0.5,
            "lambda": 5,
            "drawnRed": 63,
            "reportedRed": 68,
            "inferredRed": 58,
            "playerTrialScore": 0,
            "oppTrialScore": -5,
            "playerTotalScore": -31,
            "oppTotalScore": -147,
            "waitTime": 3162.8099732610317,
            "responseTime": 1642577406403,
            "catchQuestion": "How many <b class=\"r\">red<\/b> marbles did your opponent report drawing? ",
            "catchKey": -1,
            "catchResponse": -1,
            "catchTime": 1642577369002,
            "trialTime": 0
        },
        {
            "exptPart": "trial",
            "trialNumber": 34,
            "roleCurrent": "receiver",
            "marblesSampled": 100,
            "probRed": 0.5,
            "lambda": 5,
            "drawnRed": 30,
            "reportedRed": 31,
            "inferredRed": 28,
            "playerTrialScore": -2,
            "oppTrialScore": 0,
            "playerTotalScore": -33,
            "oppTotalScore": -147,
            "waitTime": 5156.615774188003,
            "responseTime": 1642577418286,
            "catchQuestion": "How many <b class=\"r\">red<\/b> marbles did your opponent report drawing? ",
            "catchKey": -1,
            "catchResponse": -1,
            "catchTime": 1642577369002,
            "trialTime": 0
        },
        {
            "exptPart": "trial",
            "trialNumber": 35,
            "roleCurrent": "sender",
            "marblesSampled": 100,
            "probRed": 0.5,
            "lambda": 5,
            "drawnRed": 43,
            "reportedRed": 43,
            "inferredRed": 38,
            "playerTrialScore": 0,
            "oppTrialScore": -5,
            "playerTotalScore": -33,
            "oppTotalScore": -152,
            "waitTime": 2220.144509894753,
            "responseTime": 1642577427152,
            "catchQuestion": "How many <b class=\"r\">red<\/b> marbles did your opponent report drawing? ",
            "catchKey": -1,
            "catchResponse": -1,
            "catchTime": 1642577427153,
            "trialTime": 0
        },
        {
            "exptPart": "trial",
            "trialNumber": 36,
            "roleCurrent": "receiver",
            "marblesSampled": 100,
            "probRed": 0.5,
            "lambda": 5,
            "drawnRed": 49,
            "reportedRed": 53,
            "inferredRed": 43,
            "playerTrialScore": -6,
            "oppTrialScore": 0,
            "playerTotalScore": -39,
            "oppTotalScore": -152,
            "waitTime": 6695.552655266334,
            "responseTime": 1642577442184,
            "catchQuestion": "How many <b class=\"r\">red<\/b> marbles did your opponent report drawing? ",
            "catchKey": -1,
            "catchResponse": -1,
            "catchTime": 1642577427153,
            "trialTime": 0
        },
        {
            "exptPart": "trial",
            "trialNumber": 37,
            "roleCurrent": "sender",
            "marblesSampled": 100,
            "probRed": 0.5,
            "lambda": 5,
            "drawnRed": 36,
            "reportedRed": 59,
            "inferredRed": 57,
            "playerTrialScore": 21,
            "oppTrialScore": -21,
            "playerTotalScore": -18,
            "oppTotalScore": -173,
            "waitTime": 2678.2201104583555,
            "responseTime": 1642577463419,
            "catchQuestion": "How many <b class=\"r\">red<\/b> marbles did you actually draw (before any changes)? ",
            "catchKey": 36,
            "catchResponse": 48,
            "catchTime": 1642577463420,
            "trialTime": 0
        },
        {
            "exptPart": "trial",
            "trialNumber": 38,
            "roleCurrent": "receiver",
            "marblesSampled": 100,
            "probRed": 0.5,
            "lambda": 5,
            "drawnRed": 13,
            "reportedRed": 18,
            "inferredRed": 16,
            "playerTrialScore": -3,
            "oppTrialScore": 3,
            "playerTotalScore": -21,
            "oppTotalScore": -170,
            "waitTime": 7495.811493708862,
            "responseTime": 1642577488919,
            "catchQuestion": "How many <b class=\"r\">red<\/b> marbles did you actually draw (before any changes)? ",
            "catchKey": -1,
            "catchResponse": -1,
            "catchTime": 1642577463420,
            "trialTime": 0
        },
        {
            "exptPart": "trial",
            "trialNumber": 39,
            "roleCurrent": "sender",
            "marblesSampled": 100,
            "probRed": 0.5,
            "lambda": 5,
            "drawnRed": 56,
            "reportedRed": 56,
            "inferredRed": 49,
            "playerTrialScore": 0,
            "oppTrialScore": -7,
            "playerTotalScore": -21,
            "oppTotalScore": -177,
            "waitTime": 2555.061759646478,
            "responseTime": 1642577497370,
            "catchQuestion": "How many <b class=\"r\">red<\/b> marbles did you actually draw (before any changes)? ",
            "catchKey": -1,
            "catchResponse": -1,
            "catchTime": 1642577463420,
            "trialTime": 0
        },
        {
            "exptPart": "trial",
            "trialNumber": 40,
            "roleCurrent": "receiver",
            "marblesSampled": 100,
            "probRed": 0.5,
            "lambda": 5,
            "drawnRed": 81,
            "reportedRed": 85,
            "inferredRed": 60,
            "playerTrialScore": -21,
            "oppTrialScore": 0,
            "playerTotalScore": -42,
            "oppTotalScore": -177,
            "waitTime": 5719.465952592296,
            "responseTime": 1642577508036,
            "catchQuestion": "How many <b class=\"r\">red<\/b> marbles did you actually draw (before any changes)? ",
            "catchKey": -1,
            "catchResponse": -1,
            "catchTime": 1642577508036,
            "trialTime": 0
        },
        {
            "exptPart": "trial",
            "trialNumber": 41,
            "roleCurrent": "sender",
            "marblesSampled": 100,
            "probRed": 0.5,
            "lambda": 5,
            "drawnRed": 71,
            "reportedRed": 70,
            "inferredRed": 65,
            "playerTrialScore": 0,
            "oppTrialScore": -6,
            "playerTotalScore": -42,
            "oppTotalScore": -183,
            "waitTime": 2127.3210814835043,
            "responseTime": 1642577527820,
            "catchQuestion": "How many <b class=\"r\">red<\/b> marbles did you actually draw (before any changes)? ",
            "catchKey": -1,
            "catchResponse": -1,
            "catchTime": 1642577508036,
            "trialTime": 0
        },
        {
            "exptPart": "trial",
            "trialNumber": 42,
            "roleCurrent": "receiver",
            "marblesSampled": 100,
            "probRed": 0.5,
            "lambda": 5,
            "drawnRed": 54,
            "reportedRed": 60,
            "inferredRed": 45,
            "playerTrialScore": -9,
            "oppTrialScore": 0,
            "playerTotalScore": -51,
            "oppTotalScore": -183,
            "waitTime": 5644.396182555844,
            "responseTime": 1642577537852,
            "catchQuestion": "How many <b class=\"r\">red<\/b> marbles did you actually draw (before any changes)? ",
            "catchKey": -1,
            "catchResponse": -1,
            "catchTime": 1642577508036,
            "trialTime": 0
        },
        {
            "exptPart": "trial",
            "trialNumber": 43,
            "roleCurrent": "sender",
            "marblesSampled": 100,
            "probRed": 0.5,
            "lambda": 5,
            "drawnRed": 37,
            "reportedRed": 52,
            "inferredRed": 51,
            "playerTrialScore": 14,
            "oppTrialScore": -14,
            "playerTotalScore": -37,
            "oppTotalScore": -197,
            "waitTime": 2515.2233403036944,
            "responseTime": 1642577553535,
            "catchQuestion": "How many <b class=\"r\">red<\/b> marbles did you actually draw (before any changes)? ",
            "catchKey": -1,
            "catchResponse": -1,
            "catchTime": 1642577508036,
            "trialTime": 0
        },
        {
            "exptPart": "trial",
            "trialNumber": 44,
            "roleCurrent": "receiver",
            "marblesSampled": 100,
            "probRed": 0.5,
            "lambda": 5,
            "drawnRed": 21,
            "reportedRed": 25,
            "inferredRed": 10,
            "playerTrialScore": -11,
            "oppTrialScore": 0,
            "playerTotalScore": -48,
            "oppTotalScore": -197,
            "waitTime": 5828.624081196085,
            "responseTime": 1642577564051,
            "catchQuestion": "How many <b class=\"r\">red<\/b> marbles did you actually draw (before any changes)? ",
            "catchKey": -1,
            "catchResponse": -1,
            "catchTime": 1642577508036,
            "trialTime": 0
        },
        {
            "exptPart": "trial",
            "trialNumber": 45,
            "roleCurrent": "sender",
            "marblesSampled": 100,
            "probRed": 0.5,
            "lambda": 5,
            "drawnRed": 37,
            "reportedRed": 52,
            "inferredRed": 45,
            "playerTrialScore": 8,
            "oppTrialScore": -8,
            "playerTotalScore": -40,
            "oppTotalScore": -205,
            "waitTime": 2949.124325187131,
            "responseTime": 1642577580119,
            "catchQuestion": "How many <b class=\"r\">red<\/b> marbles did you actually draw (before any changes)? ",
            "catchKey": -1,
            "catchResponse": -1,
            "catchTime": 1642577580119,
            "trialTime": 0
        },
        {
            "exptPart": "trial",
            "trialNumber": 46,
            "roleCurrent": "receiver",
            "marblesSampled": 100,
            "probRed": 0.5,
            "lambda": 5,
            "drawnRed": 55,
            "reportedRed": 62,
            "inferredRed": 50,
            "playerTrialScore": -5,
            "oppTrialScore": 0,
            "playerTotalScore": -45,
            "oppTotalScore": -205,
            "waitTime": 5528.31708715939,
            "responseTime": 1642577596501,
            "catchQuestion": "How many <b class=\"r\">red<\/b> marbles did you actually draw (before any changes)? ",
            "catchKey": -1,
            "catchResponse": -1,
            "catchTime": 1642577580119,
            "trialTime": 0
        },
        {
            "exptPart": "trial",
            "trialNumber": 47,
            "roleCurrent": "sender",
            "marblesSampled": 100,
            "probRed": 0.5,
            "lambda": 5,
            "drawnRed": 48,
            "reportedRed": 61,
            "inferredRed": 44,
            "playerTrialScore": 0,
            "oppTrialScore": -4,
            "playerTotalScore": -45,
            "oppTotalScore": -209,
            "waitTime": 2101.8028588362986,
            "responseTime": 1642577631886,
            "catchQuestion": "How many <b class=\"r\">red<\/b> marbles did you actually draw (before any changes)? ",
            "catchKey": -1,
            "catchResponse": -1,
            "catchTime": 1642577580119,
            "trialTime": 0
        },
        {
            "exptPart": "trial",
            "trialNumber": 48,
            "roleCurrent": "receiver",
            "marblesSampled": 100,
            "probRed": 0.5,
            "lambda": 5,
            "drawnRed": 59,
            "reportedRed": 66,
            "inferredRed": 50,
            "playerTrialScore": -9,
            "oppTrialScore": 0,
            "playerTotalScore": -54,
            "oppTotalScore": -209,
            "waitTime": 6841.027234853588,
            "responseTime": 1642577649567,
            "catchQuestion": "How many <b class=\"r\">red<\/b> marbles did you actually draw (before any changes)? ",
            "catchKey": -1,
            "catchResponse": -1,
            "catchTime": 1642577580119,
            "trialTime": 0
        },
        {
            "exptPart": "trial",
            "trialNumber": 49,
            "roleCurrent": "sender",
            "marblesSampled": 100,
            "probRed": 0.5,
            "lambda": 5,
            "drawnRed": 49,
            "reportedRed": 49,
            "inferredRed": 43,
            "playerTrialScore": 0,
            "oppTrialScore": -6,
            "playerTotalScore": -54,
            "oppTotalScore": -215,
            "waitTime": 2539.1936984539225,
            "responseTime": 1642577668235,
            "catchQuestion": "How many <b class=\"r\">red<\/b> marbles did you actually draw (before any changes)? ",
            "catchKey": -1,
            "catchResponse": -1,
            "catchTime": 1642577580119,
            "trialTime": 0
        },
        {
            "exptPart": "trial",
            "trialNumber": 50,
            "roleCurrent": "receiver",
            "marblesSampled": 100,
            "probRed": 0.5,
            "lambda": 5,
            "drawnRed": 45,
            "reportedRed": 49,
            "inferredRed": 30,
            "playerTrialScore": -15,
            "oppTrialScore": 0,
            "playerTotalScore": -69,
            "oppTotalScore": -215,
            "waitTime": 7466.870213079072,
            "responseTime": 1642577681834,
            "catchQuestion": "How many <b class=\"r\">red<\/b> marbles did you actually draw (before any changes)? ",
            "catchKey": -1,
            "catchResponse": -1,
            "catchTime": 1642577681834,
            "trialTime": 0
        },
        {
            "exptPart": "trial",
            "trialNumber": 51,
            "roleCurrent": "sender",
            "marblesSampled": 100,
            "probRed": 0.5,
            "lambda": 5,
            "drawnRed": 48,
            "reportedRed": 48,
            "inferredRed": 45,
            "playerTrialScore": 0,
            "oppTrialScore": -3,
            "playerTotalScore": -69,
            "oppTotalScore": -218,
            "waitTime": 2717.4996128317216,
            "responseTime": 1642577692452,
            "catchQuestion": "How many <b class=\"r\">red<\/b> marbles did you actually draw (before any changes)? ",
            "catchKey": -1,
            "catchResponse": -1,
            "catchTime": 1642577681834,
            "trialTime": 0
        },
        {
            "exptPart": "trial",
            "trialNumber": 52,
            "roleCurrent": "receiver",
            "marblesSampled": 100,
            "probRed": 0.5,
            "lambda": 5,
            "drawnRed": 85,
            "reportedRed": 91,
            "inferredRed": 80,
            "playerTrialScore": -5,
            "oppTrialScore": 0,
            "playerTotalScore": -74,
            "oppTotalScore": -218,
            "waitTime": 6430.0394165468315,
            "responseTime": 1642577706684,
            "catchQuestion": "How many <b class=\"r\">red<\/b> marbles did your opponent report drawing? ",
            "catchKey": 91,
            "catchResponse": 91,
            "catchTime": 1642577706684,
            "trialTime": 0
        },
        {
            "exptPart": "trial",
            "trialNumber": 53,
            "roleCurrent": "sender",
            "marblesSampled": 100,
            "probRed": 0.5,
            "lambda": 5,
            "drawnRed": 57,
            "reportedRed": 47,
            "inferredRed": 39,
            "playerTrialScore": 0,
            "oppTrialScore": -18,
            "playerTotalScore": -74,
            "oppTotalScore": -236,
            "waitTime": 3176.3236080061697,
            "responseTime": 1642577734871,
            "catchQuestion": "How many <b class=\"r\">red<\/b> marbles did your opponent report drawing? ",
            "catchKey": -1,
            "catchResponse": -1,
            "catchTime": 1642577706684,
            "trialTime": 0
        },
        {
            "exptPart": "trial",
            "trialNumber": 54,
            "roleCurrent": "receiver",
            "marblesSampled": 100,
            "probRed": 0.5,
            "lambda": 5,
            "drawnRed": 76,
            "reportedRed": 79,
            "inferredRed": 80,
            "playerTrialScore": -4,
            "oppTrialScore": 4,
            "playerTotalScore": -78,
            "oppTotalScore": -232,
            "waitTime": 5581.542850220387,
            "responseTime": 1642577751801,
            "catchQuestion": "How many <b class=\"r\">red<\/b> marbles did your opponent report drawing? ",
            "catchKey": -1,
            "catchResponse": -1,
            "catchTime": 1642577706684,
            "trialTime": 0
        },
        {
            "exptPart": "trial",
            "trialNumber": 55,
            "roleCurrent": "sender",
            "marblesSampled": 100,
            "probRed": 0.5,
            "lambda": 5,
            "drawnRed": 51,
            "reportedRed": 52,
            "inferredRed": 47,
            "playerTrialScore": 0,
            "oppTrialScore": -4,
            "playerTotalScore": -78,
            "oppTotalScore": -236,
            "waitTime": 2086.6486404623065,
            "responseTime": 1642577784552,
            "catchQuestion": "How many <b class=\"r\">red<\/b> marbles did your opponent report drawing? ",
            "catchKey": -1,
            "catchResponse": -1,
            "catchTime": 1642577784552,
            "trialTime": 0
        },
        {
            "exptPart": "trial",
            "trialNumber": 56,
            "roleCurrent": "receiver",
            "marblesSampled": 100,
            "probRed": 0.5,
            "lambda": 5,
            "drawnRed": 92,
            "reportedRed": 95,
            "inferredRed": 80,
            "playerTrialScore": -12,
            "oppTrialScore": 0,
            "playerTotalScore": -90,
            "oppTotalScore": -236,
            "waitTime": 5746.953741039293,
            "responseTime": 1642577797102,
            "catchQuestion": "How many <b class=\"r\">red<\/b> marbles did your opponent report drawing? ",
            "catchKey": -1,
            "catchResponse": -1,
            "catchTime": 1642577784552,
            "trialTime": 0
        },
        {
            "exptPart": "trial",
            "trialNumber": 57,
            "roleCurrent": "sender",
            "marblesSampled": 100,
            "probRed": 0.5,
            "lambda": 5,
            "drawnRed": 33,
            "reportedRed": 33,
            "inferredRed": 28,
            "playerTrialScore": 0,
            "oppTrialScore": -5,
            "playerTotalScore": -90,
            "oppTotalScore": -241,
            "waitTime": 2552.8675129187577,
            "responseTime": 1642577803985,
            "catchQuestion": "How many <b class=\"r\">red<\/b> marbles did your opponent report drawing? ",
            "catchKey": -1,
            "catchResponse": -1,
            "catchTime": 1642577784552,
            "trialTime": 0
        },
        {
            "exptPart": "trial",
            "trialNumber": 58,
            "roleCurrent": "receiver",
            "marblesSampled": 100,
            "probRed": 0.5,
            "lambda": 5,
            "drawnRed": 57,
            "reportedRed": 64,
            "inferredRed": 50,
            "playerTrialScore": -7,
            "oppTrialScore": 0,
            "playerTotalScore": -97,
            "oppTotalScore": -241,
            "waitTime": 5211.519151872288,
            "responseTime": 1642577813052,
            "catchQuestion": "How many <b class=\"r\">red<\/b> marbles did your opponent report drawing? ",
            "catchKey": -1,
            "catchResponse": -1,
            "catchTime": 1642577784552,
            "trialTime": 0
        },
        {
            "exptPart": "trial",
            "trialNumber": 59,
            "roleCurrent": "sender",
            "marblesSampled": 100,
            "probRed": 0.5,
            "lambda": 5,
            "drawnRed": 22,
            "reportedRed": 22,
            "inferredRed": 16,
            "playerTrialScore": 0,
            "oppTrialScore": -6,
            "playerTotalScore": -97,
            "oppTotalScore": -247,
            "waitTime": 3048.937842700506,
            "responseTime": 1642577820068,
            "catchQuestion": "How many <b class=\"r\">red<\/b> marbles did your opponent report drawing? ",
            "catchKey": -1,
            "catchResponse": -1,
            "catchTime": 1642577784552,
            "trialTime": 0
        },
        {
            "exptPart": "trial",
            "trialNumber": 60,
            "roleCurrent": "receiver",
            "marblesSampled": 100,
            "probRed": 0.5,
            "lambda": 5,
            "drawnRed": 73,
            "reportedRed": 77,
            "inferredRed": 60,
            "playerTrialScore": -13,
            "oppTrialScore": 0,
            "playerTotalScore": -110,
            "oppTotalScore": -247,
            "waitTime": 5270.291754064243,
            "responseTime": 1642577830917,
            "catchQuestion": "How many <b class=\"r\">red<\/b> marbles did your opponent report drawing? ",
            "catchKey": -1,
            "catchResponse": -1,
            "catchTime": 1642577830918,
            "trialTime": 0
        },
        {
            "exptPart": "trial",
            "trialNumber": 61,
            "roleCurrent": "sender",
            "marblesSampled": 100,
            "probRed": 0.5,
            "lambda": 5,
            "drawnRed": 47,
            "reportedRed": 79,
            "inferredRed": 76,
            "playerTrialScore": 29,
            "oppTrialScore": -29,
            "playerTotalScore": -81,
            "oppTotalScore": -276,
            "waitTime": 2171.4085851666105,
            "responseTime": 1642577868268,
            "catchQuestion": "How many <b class=\"r\">red<\/b> marbles did you actually draw (before any changes)? ",
            "catchKey": 47,
            "catchResponse": 47,
            "catchTime": 1642577868268,
            "trialTime": 0
        },
        {
            "exptPart": "trial",
            "trialNumber": 62,
            "roleCurrent": "receiver",
            "marblesSampled": 100,
            "probRed": 0.5,
            "lambda": 5,
            "drawnRed": 39,
            "reportedRed": 44,
            "inferredRed": 20,
            "playerTrialScore": -19,
            "oppTrialScore": 0,
            "playerTotalScore": -100,
            "oppTotalScore": -276,
            "waitTime": 5147.973930098143,
            "responseTime": 1642577896285,
            "catchQuestion": "How many <b class=\"r\">red<\/b> marbles did you actually draw (before any changes)? ",
            "catchKey": -1,
            "catchResponse": -1,
            "catchTime": 1642577868268,
            "trialTime": 0
        },
        {
            "exptPart": "trial",
            "trialNumber": 63,
            "roleCurrent": "sender",
            "marblesSampled": 100,
            "probRed": 0.5,
            "lambda": 5,
            "drawnRed": 59,
            "reportedRed": 82,
            "inferredRed": 74,
            "playerTrialScore": 15,
            "oppTrialScore": -15,
            "playerTotalScore": -85,
            "oppTotalScore": -291,
            "waitTime": 2221.368087010178,
            "responseTime": 1642577918884,
            "catchQuestion": "How many <b class=\"r\">red<\/b> marbles did you actually draw (before any changes)? ",
            "catchKey": -1,
            "catchResponse": -1,
            "catchTime": 1642577868268,
            "trialTime": 0
        },
        {
            "exptPart": "trial",
            "trialNumber": 64,
            "roleCurrent": "receiver",
            "marblesSampled": 100,
            "probRed": 0.5,
            "lambda": 5,
            "drawnRed": 51,
            "reportedRed": 53,
            "inferredRed": 30,
            "playerTrialScore": -21,
            "oppTrialScore": 0,
            "playerTotalScore": -106,
            "oppTotalScore": -291,
            "waitTime": 6104.894163822624,
            "responseTime": 1642577930084,
            "catchQuestion": "How many <b class=\"r\">red<\/b> marbles did you actually draw (before any changes)? ",
            "catchKey": -1,
            "catchResponse": -1,
            "catchTime": 1642577868268,
            "trialTime": 0
        },
        {
            "exptPart": "trial",
            "trialNumber": 65,
            "roleCurrent": "sender",
            "marblesSampled": 100,
            "probRed": 0.5,
            "lambda": 5,
            "drawnRed": 39,
            "reportedRed": 75,
            "inferredRed": 72,
            "playerTrialScore": 33,
            "oppTrialScore": -33,
            "playerTotalScore": -73,
            "oppTotalScore": -324,
            "waitTime": 2806.0252789466576,
            "responseTime": 1642577953551,
            "catchQuestion": "How many <b class=\"r\">red<\/b> marbles did you actually draw (before any changes)? ",
            "catchKey": -1,
            "catchResponse": -1,
            "catchTime": 1642577953551,
            "trialTime": 0
        },
        {
            "exptPart": "trial",
            "trialNumber": 66,
            "roleCurrent": "receiver",
            "marblesSampled": 100,
            "probRed": 0.5,
            "lambda": 5,
            "drawnRed": 85,
            "reportedRed": 91,
            "inferredRed": 10,
            "playerTrialScore": -75,
            "oppTrialScore": 0,
            "playerTotalScore": -148,
            "oppTotalScore": -324,
            "waitTime": 6248.280711320331,
            "responseTime": 1642577967840,
            "catchQuestion": "How many <b class=\"r\">red<\/b> marbles did you actually draw (before any changes)? ",
            "catchKey": -1,
            "catchResponse": -1,
            "catchTime": 1642577953551,
            "trialTime": 0
        },
        {
            "exptPart": "trial",
            "trialNumber": 67,
            "roleCurrent": "sender",
            "marblesSampled": 100,
            "probRed": 0.5,
            "lambda": 5,
            "drawnRed": 27,
            "reportedRed": 73,
            "inferredRed": 66,
            "playerTrialScore": 39,
            "oppTrialScore": -39,
            "playerTotalScore": -109,
            "oppTotalScore": -363,
            "waitTime": 2128.8845362243346,
            "responseTime": 1642577996032,
            "catchQuestion": "How many <b class=\"r\">red<\/b> marbles did you actually draw (before any changes)? ",
            "catchKey": -1,
            "catchResponse": -1,
            "catchTime": 1642577953551,
            "trialTime": 0
        },
        {
            "exptPart": "trial",
            "trialNumber": 68,
            "roleCurrent": "receiver",
            "marblesSampled": 100,
            "probRed": 0.5,
            "lambda": 5,
            "drawnRed": 54,
            "reportedRed": 61,
            "inferredRed": 12,
            "playerTrialScore": -42,
            "oppTrialScore": 0,
            "playerTotalScore": -151,
            "oppTotalScore": -363,
            "waitTime": 6104.59798111831,
            "responseTime": 1642578005798,
            "catchQuestion": "How many <b class=\"r\">red<\/b> marbles did you actually draw (before any changes)? ",
            "catchKey": -1,
            "catchResponse": -1,
            "catchTime": 1642577953551,
            "trialTime": 0
        },
        {
            "exptPart": "trial",
            "trialNumber": 69,
            "roleCurrent": "sender",
            "marblesSampled": 100,
            "probRed": 0.5,
            "lambda": 5,
            "drawnRed": 51,
            "reportedRed": 63,
            "inferredRed": 57,
            "playerTrialScore": 6,
            "oppTrialScore": -6,
            "playerTotalScore": -145,
            "oppTotalScore": -369,
            "waitTime": 2115.3815724840283,
            "responseTime": 1642578017650,
            "catchQuestion": "How many <b class=\"r\">red<\/b> marbles did you actually draw (before any changes)? ",
            "catchKey": -1,
            "catchResponse": -1,
            "catchTime": 1642577953551,
            "trialTime": 0
        },
        {
            "exptPart": "trial",
            "trialNumber": 70,
            "roleCurrent": "receiver",
            "marblesSampled": 100,
            "probRed": 0.5,
            "lambda": 5,
            "drawnRed": 49,
            "reportedRed": 54,
            "inferredRed": 40,
            "playerTrialScore": -9,
            "oppTrialScore": 0,
            "playerTotalScore": -154,
            "oppTotalScore": -369,
            "waitTime": 5164.60858587642,
            "responseTime": 1642578026816,
            "catchQuestion": "How many <b class=\"r\">red<\/b> marbles did you actually draw (before any changes)? ",
            "catchKey": -1,
            "catchResponse": -1,
            "catchTime": 1642578026816,
            "trialTime": 0
        },
        {
            "exptPart": "trial",
            "trialNumber": 71,
            "roleCurrent": "sender",
            "marblesSampled": 100,
            "probRed": 0.5,
            "lambda": 5,
            "drawnRed": 58,
            "reportedRed": 84,
            "inferredRed": 78,
            "playerTrialScore": 20,
            "oppTrialScore": -20,
            "playerTotalScore": -134,
            "oppTotalScore": -389,
            "waitTime": 2503.7213805367846,
            "responseTime": 1642578050101,
            "catchQuestion": "How many <b class=\"r\">red<\/b> marbles did you actually draw (before any changes)? ",
            "catchKey": -1,
            "catchResponse": -1,
            "catchTime": 1642578026816,
            "trialTime": 0
        },
        {
            "exptPart": "trial",
            "trialNumber": 72,
            "roleCurrent": "receiver",
            "marblesSampled": 100,
            "probRed": 0.5,
            "lambda": 5,
            "drawnRed": 47,
            "reportedRed": 50,
            "inferredRed": 36,
            "playerTrialScore": -11,
            "oppTrialScore": 0,
            "playerTotalScore": -145,
            "oppTotalScore": -389,
            "waitTime": 5689.9714928478015,
            "responseTime": 1642578059268,
            "catchQuestion": "How many <b class=\"r\">red<\/b> marbles did you actually draw (before any changes)? ",
            "catchKey": -1,
            "catchResponse": -1,
            "catchTime": 1642578026816,
            "trialTime": 0
        },
        {
            "exptPart": "trial",
            "trialNumber": 73,
            "roleCurrent": "sender",
            "marblesSampled": 100,
            "probRed": 0.5,
            "lambda": 5,
            "drawnRed": 72,
            "reportedRed": 89,
            "inferredRed": 85,
            "playerTrialScore": 13,
            "oppTrialScore": -13,
            "playerTotalScore": -132,
            "oppTotalScore": -402,
            "waitTime": 2268.8884352427053,
            "responseTime": 1642578077435,
            "catchQuestion": "How many <b class=\"r\">red<\/b> marbles did you actually draw (before any changes)? ",
            "catchKey": -1,
            "catchResponse": -1,
            "catchTime": 1642578026816,
            "trialTime": 0
        },
        {
            "exptPart": "trial",
            "trialNumber": 74,
            "roleCurrent": "receiver",
            "marblesSampled": 100,
            "probRed": 0.5,
            "lambda": 5,
            "drawnRed": 33,
            "reportedRed": 37,
            "inferredRed": 7,
            "playerTrialScore": -26,
            "oppTrialScore": 0,
            "playerTotalScore": -158,
            "oppTotalScore": -402,
            "waitTime": 5231.20090453826,
            "responseTime": 1642578092017,
            "catchQuestion": "How many <b class=\"r\">red<\/b> marbles did you actually draw (before any changes)? ",
            "catchKey": -1,
            "catchResponse": -1,
            "catchTime": 1642578026816,
            "trialTime": 0
        },
        {
            "exptPart": "trial",
            "trialNumber": 75,
            "roleCurrent": "sender",
            "marblesSampled": 100,
            "probRed": 0.5,
            "lambda": 5,
            "drawnRed": 67,
            "reportedRed": 69,
            "inferredRed": 59,
            "playerTrialScore": 0,
            "oppTrialScore": -8,
            "playerTotalScore": -158,
            "oppTotalScore": -410,
            "waitTime": 2873.3877653737645,
            "responseTime": 1642578102334,
            "catchQuestion": "How many <b class=\"r\">red<\/b> marbles did you actually draw (before any changes)? ",
            "catchKey": -1,
            "catchResponse": -1,
            "catchTime": 1642578102334,
            "trialTime": 0
        },
        {
            "exptPart": "trial",
            "trialNumber": 76,
            "roleCurrent": "receiver",
            "marblesSampled": 100,
            "probRed": 0.5,
            "lambda": 5,
            "drawnRed": 68,
            "reportedRed": 73,
            "inferredRed": 60,
            "playerTrialScore": -8,
            "oppTrialScore": 0,
            "playerTotalScore": -166,
            "oppTotalScore": -410,
            "waitTime": 6560.521745140105,
            "responseTime": 1642578113901,
            "catchQuestion": "How many <b class=\"r\">red<\/b> marbles did your opponent report drawing? ",
            "catchKey": 73,
            "catchResponse": 73,
            "catchTime": 1642578113901,
            "trialTime": 0
        },
        {
            "exptPart": "trial",
            "trialNumber": 77,
            "roleCurrent": "sender",
            "marblesSampled": 100,
            "probRed": 0.5,
            "lambda": 5,
            "drawnRed": 50,
            "reportedRed": 63,
            "inferredRed": 57,
            "playerTrialScore": 7,
            "oppTrialScore": -7,
            "playerTotalScore": -159,
            "oppTotalScore": -417,
            "waitTime": 3098.968027873007,
            "responseTime": 1642578133351,
            "catchQuestion": "How many <b class=\"r\">red<\/b> marbles did your opponent report drawing? ",
            "catchKey": -1,
            "catchResponse": -1,
            "catchTime": 1642578113901,
            "trialTime": 0
        },
        {
            "exptPart": "trial",
            "trialNumber": 78,
            "roleCurrent": "receiver",
            "marblesSampled": 100,
            "probRed": 0.5,
            "lambda": 5,
            "drawnRed": 53,
            "reportedRed": 58,
            "inferredRed": 49,
            "playerTrialScore": -4,
            "oppTrialScore": 0,
            "playerTotalScore": -163,
            "oppTotalScore": -417,
            "waitTime": 6287.364055679703,
            "responseTime": 1642578149433,
            "catchQuestion": "How many <b class=\"r\">red<\/b> marbles did your opponent report drawing? ",
            "catchKey": -1,
            "catchResponse": -1,
            "catchTime": 1642578113901,
            "trialTime": 0
        },
        {
            "exptPart": "trial",
            "trialNumber": 79,
            "roleCurrent": "sender",
            "marblesSampled": 100,
            "probRed": 0.5,
            "lambda": 5,
            "drawnRed": 72,
            "reportedRed": 64,
            "inferredRed": 59,
            "playerTrialScore": 0,
            "oppTrialScore": -13,
            "playerTotalScore": -163,
            "oppTotalScore": -430,
            "waitTime": 2883.224037267147,
            "responseTime": 1642578162220,
            "catchQuestion": "How many <b class=\"r\">red<\/b> marbles did your opponent report drawing? ",
            "catchKey": -1,
            "catchResponse": -1,
            "catchTime": 1642578113901,
            "trialTime": 0
        },
        {
            "exptPart": "trial",
            "trialNumber": 80,
            "roleCurrent": "receiver",
            "marblesSampled": 100,
            "probRed": 0.5,
            "lambda": 5,
            "drawnRed": 31,
            "reportedRed": 33,
            "inferredRed": 19,
            "playerTrialScore": -12,
            "oppTrialScore": 0,
            "playerTotalScore": -175,
            "oppTotalScore": -430,
            "waitTime": 5510.6906332413055,
            "responseTime": 1642578175850,
            "catchQuestion": "How many <b class=\"r\">red<\/b> marbles did your opponent report drawing? ",
            "catchKey": -1,
            "catchResponse": -1,
            "catchTime": 1642578175851,
            "trialTime": 0
        },
        {
            "exptPart": "trial",
            "trialNumber": 81,
            "roleCurrent": "sender",
            "marblesSampled": 100,
            "probRed": 0.5,
            "lambda": 5,
            "drawnRed": 51,
            "reportedRed": 52,
            "inferredRed": 49,
            "playerTrialScore": 0,
            "oppTrialScore": -2,
            "playerTotalScore": -175,
            "oppTotalScore": -432,
            "waitTime": 3050.1081465085326,
            "responseTime": 1642578186501,
            "catchQuestion": "How many <b class=\"r\">red<\/b> marbles did your opponent report drawing? ",
            "catchKey": -1,
            "catchResponse": -1,
            "catchTime": 1642578175851,
            "trialTime": 0
        },
        {
            "exptPart": "trial",
            "trialNumber": 82,
            "roleCurrent": "receiver",
            "marblesSampled": 100,
            "probRed": 0.5,
            "lambda": 5,
            "drawnRed": 57,
            "reportedRed": 62,
            "inferredRed": 30,
            "playerTrialScore": -27,
            "oppTrialScore": 0,
            "playerTotalScore": -202,
            "oppTotalScore": -432,
            "waitTime": 6409.331100961135,
            "responseTime": 1642578196800,
            "catchQuestion": "How many <b class=\"r\">red<\/b> marbles did your opponent report drawing? ",
            "catchKey": -1,
            "catchResponse": -1,
            "catchTime": 1642578175851,
            "trialTime": 0
        },
        {
            "exptPart": "trial",
            "trialNumber": 83,
            "roleCurrent": "sender",
            "marblesSampled": 100,
            "probRed": 0.5,
            "lambda": 5,
            "drawnRed": 29,
            "reportedRed": 29,
            "inferredRed": 21,
            "playerTrialScore": 0,
            "oppTrialScore": -8,
            "playerTotalScore": -202,
            "oppTotalScore": -440,
            "waitTime": 2472.1170996301626,
            "responseTime": 1642578205400,
            "catchQuestion": "How many <b class=\"r\">red<\/b> marbles did your opponent report drawing? ",
            "catchKey": -1,
            "catchResponse": -1,
            "catchTime": 1642578175851,
            "trialTime": 0
        },
        {
            "exptPart": "trial",
            "trialNumber": 84,
            "roleCurrent": "receiver",
            "marblesSampled": 100,
            "probRed": 0.5,
            "lambda": 5,
            "drawnRed": 44,
            "reportedRed": 51,
            "inferredRed": 1,
            "playerTrialScore": -43,
            "oppTrialScore": 0,
            "playerTotalScore": -245,
            "oppTotalScore": -440,
            "waitTime": 5144.353228454536,
            "responseTime": 1642578214500,
            "catchQuestion": "How many <b class=\"r\">red<\/b> marbles did your opponent report drawing? ",
            "catchKey": -1,
            "catchResponse": -1,
            "catchTime": 1642578175851,
            "trialTime": 0
        },
        {
            "exptPart": "trial",
            "trialNumber": 85,
            "roleCurrent": "sender",
            "marblesSampled": 100,
            "probRed": 0.5,
            "lambda": 5,
            "drawnRed": 11,
            "reportedRed": 74,
            "inferredRed": 68,
            "playerTrialScore": 57,
            "oppTrialScore": -57,
            "playerTotalScore": -188,
            "oppTotalScore": -497,
            "waitTime": 2334.6602293101223,
            "responseTime": 1642578252553,
            "catchQuestion": "How many <b class=\"r\">red<\/b> marbles did your opponent report drawing? ",
            "catchKey": -1,
            "catchResponse": -1,
            "catchTime": 1642578252553,
            "trialTime": 0
        },
        {
            "exptPart": "trial",
            "trialNumber": 86,
            "roleCurrent": "receiver",
            "marblesSampled": 100,
            "probRed": 0.5,
            "lambda": 5,
            "drawnRed": 25,
            "reportedRed": 30,
            "inferredRed": 4,
            "playerTrialScore": -21,
            "oppTrialScore": 0,
            "playerTotalScore": -209,
            "oppTotalScore": -497,
            "waitTime": 5164.338380201532,
            "responseTime": 1642578262250,
            "catchQuestion": "How many <b class=\"r\">red<\/b> marbles did your opponent report drawing? ",
            "catchKey": -1,
            "catchResponse": -1,
            "catchTime": 1642578252553,
            "trialTime": 0
        },
        {
            "exptPart": "trial",
            "trialNumber": 87,
            "roleCurrent": "sender",
            "marblesSampled": 100,
            "probRed": 0.5,
            "lambda": 5,
            "drawnRed": 52,
            "reportedRed": 53,
            "inferredRed": 48,
            "playerTrialScore": 0,
            "oppTrialScore": -4,
            "playerTotalScore": -209,
            "oppTotalScore": -501,
            "waitTime": 2585.6351659291695,
            "responseTime": 1642578270267,
            "catchQuestion": "How many <b class=\"r\">red<\/b> marbles did your opponent report drawing? ",
            "catchKey": -1,
            "catchResponse": -1,
            "catchTime": 1642578252553,
            "trialTime": 0
        },
        {
            "exptPart": "trial",
            "trialNumber": 88,
            "roleCurrent": "receiver",
            "marblesSampled": 100,
            "probRed": 0.5,
            "lambda": 5,
            "drawnRed": 59,
            "reportedRed": 65,
            "inferredRed": 40,
            "playerTrialScore": -19,
            "oppTrialScore": 0,
            "playerTotalScore": -228,
            "oppTotalScore": -501,
            "waitTime": 5990.542735069386,
            "responseTime": 1642578280500,
            "catchQuestion": "How many <b class=\"r\">red<\/b> marbles did your opponent report drawing? ",
            "catchKey": -1,
            "catchResponse": -1,
            "catchTime": 1642578252553,
            "trialTime": 0
        },
        {
            "exptPart": "trial",
            "trialNumber": 89,
            "roleCurrent": "sender",
            "marblesSampled": 100,
            "probRed": 0.5,
            "lambda": 5,
            "drawnRed": 38,
            "reportedRed": 61,
            "inferredRed": 59,
            "playerTrialScore": 21,
            "oppTrialScore": -21,
            "playerTotalScore": -207,
            "oppTotalScore": -522,
            "waitTime": 2287.7022926156938,
            "responseTime": 1642578298369,
            "catchQuestion": "How many <b class=\"r\">red<\/b> marbles did your opponent report drawing? ",
            "catchKey": -1,
            "catchResponse": -1,
            "catchTime": 1642578252553,
            "trialTime": 0
        },
        {
            "exptPart": "trial",
            "trialNumber": 90,
            "roleCurrent": "receiver",
            "marblesSampled": 100,
            "probRed": 0.5,
            "lambda": 5,
            "drawnRed": 61,
            "reportedRed": 65,
            "inferredRed": 30,
            "playerTrialScore": -31,
            "oppTrialScore": 0,
            "playerTotalScore": -238,
            "oppTotalScore": -522,
            "waitTime": 7369.164059277327,
            "responseTime": 1642578311051,
            "catchQuestion": "How many <b class=\"r\">red<\/b> marbles did your opponent report drawing? ",
            "catchKey": -1,
            "catchResponse": -1,
            "catchTime": 1642578311051,
            "trialTime": 0
        },
        {
            "exptPart": "trial",
            "trialNumber": 91,
            "roleCurrent": "sender",
            "marblesSampled": 100,
            "probRed": 0.5,
            "lambda": 5,
            "drawnRed": 47,
            "reportedRed": 47,
            "inferredRed": 46,
            "playerTrialScore": 0,
            "oppTrialScore": -1,
            "playerTotalScore": -238,
            "oppTotalScore": -523,
            "waitTime": 2073.146869971535,
            "responseTime": 1642578319401,
            "catchQuestion": "How many <b class=\"r\">red<\/b> marbles did you actually draw (before any changes)? ",
            "catchKey": 47,
            "catchResponse": 43,
            "catchTime": 1642578319401,
            "trialTime": 0
        },
        {
            "exptPart": "trial",
            "trialNumber": 92,
            "roleCurrent": "receiver",
            "marblesSampled": 100,
            "probRed": 0.5,
            "lambda": 5,
            "drawnRed": 43,
            "reportedRed": 49,
            "inferredRed": 30,
            "playerTrialScore": -13,
            "oppTrialScore": 0,
            "playerTotalScore": -251,
            "oppTotalScore": -523,
            "waitTime": 5793.662411746055,
            "responseTime": 1642578338418,
            "catchQuestion": "How many <b class=\"r\">red<\/b> marbles did you actually draw (before any changes)? ",
            "catchKey": -1,
            "catchResponse": -1,
            "catchTime": 1642578319401,
            "trialTime": 0
        },
        {
            "exptPart": "trial",
            "trialNumber": 93,
            "roleCurrent": "sender",
            "marblesSampled": 100,
            "probRed": 0.5,
            "lambda": 5,
            "drawnRed": 66,
            "reportedRed": 75,
            "inferredRed": 66,
            "playerTrialScore": 0,
            "oppTrialScore": 0,
            "playerTotalScore": -251,
            "oppTotalScore": -523,
            "waitTime": 2415.012603917612,
            "responseTime": 1642578350219,
            "catchQuestion": "How many <b class=\"r\">red<\/b> marbles did you actually draw (before any changes)? ",
            "catchKey": -1,
            "catchResponse": -1,
            "catchTime": 1642578319401,
            "trialTime": 0
        },
        {
            "exptPart": "trial",
            "trialNumber": 94,
            "roleCurrent": "receiver",
            "marblesSampled": 100,
            "probRed": 0.5,
            "lambda": 5,
            "drawnRed": 15,
            "reportedRed": 20,
            "inferredRed": 11,
            "playerTrialScore": -4,
            "oppTrialScore": 0,
            "playerTotalScore": -255,
            "oppTotalScore": -523,
            "waitTime": 6558.47457570686,
            "responseTime": 1642578365218,
            "catchQuestion": "How many <b class=\"r\">red<\/b> marbles did you actually draw (before any changes)? ",
            "catchKey": -1,
            "catchResponse": -1,
            "catchTime": 1642578319401,
            "trialTime": 0
        },
        {
            "exptPart": "trial",
            "trialNumber": 95,
            "roleCurrent": "sender",
            "marblesSampled": 100,
            "probRed": 0.5,
            "lambda": 5,
            "drawnRed": 47,
            "reportedRed": 81,
            "inferredRed": 76,
            "playerTrialScore": 29,
            "oppTrialScore": -29,
            "playerTotalScore": -226,
            "oppTotalScore": -552,
            "waitTime": 2241.8569853513736,
            "responseTime": 1642578387102,
            "catchQuestion": "How many <b class=\"r\">red<\/b> marbles did you actually draw (before any changes)? ",
            "catchKey": -1,
            "catchResponse": -1,
            "catchTime": 1642578387102,
            "trialTime": 0
        },
        {
            "exptPart": "trial",
            "trialNumber": 96,
            "roleCurrent": "receiver",
            "marblesSampled": 100,
            "probRed": 0.5,
            "lambda": 5,
            "drawnRed": 41,
            "reportedRed": 50,
            "inferredRed": 40,
            "playerTrialScore": -1,
            "oppTrialScore": 0,
            "playerTotalScore": -227,
            "oppTotalScore": -552,
            "waitTime": 6056.48373454082,
            "responseTime": 1642578396734,
            "catchQuestion": "How many <b class=\"r\">red<\/b> marbles did you actually draw (before any changes)? ",
            "catchKey": -1,
            "catchResponse": -1,
            "catchTime": 1642578387102,
            "trialTime": 0
        },
        {
            "exptPart": "trial",
            "trialNumber": 97,
            "roleCurrent": "sender",
            "marblesSampled": 100,
            "probRed": 0.5,
            "lambda": 5,
            "drawnRed": 25,
            "reportedRed": 25,
            "inferredRed": 21,
            "playerTrialScore": 0,
            "oppTrialScore": -4,
            "playerTotalScore": -227,
            "oppTotalScore": -556,
            "waitTime": 2104.6298109749796,
            "responseTime": 1642578402901,
            "catchQuestion": "How many <b class=\"r\">red<\/b> marbles did you actually draw (before any changes)? ",
            "catchKey": -1,
            "catchResponse": -1,
            "catchTime": 1642578387102,
            "trialTime": 0
        },
        {
            "exptPart": "trial",
            "trialNumber": 98,
            "roleCurrent": "receiver",
            "marblesSampled": 100,
            "probRed": 0.5,
            "lambda": 5,
            "drawnRed": 57,
            "reportedRed": 64,
            "inferredRed": 40,
            "playerTrialScore": -17,
            "oppTrialScore": 0,
            "playerTotalScore": -244,
            "oppTotalScore": -556,
            "waitTime": 5994.0410536151,
            "responseTime": 1642578411750,
            "catchQuestion": "How many <b class=\"r\">red<\/b> marbles did you actually draw (before any changes)? ",
            "catchKey": -1,
            "catchResponse": -1,
            "catchTime": 1642578387102,
            "trialTime": 0
        },
        {
            "exptPart": "trial",
            "trialNumber": 99,
            "roleCurrent": "sender",
            "marblesSampled": 100,
            "probRed": 0.5,
            "lambda": 5,
            "drawnRed": 36,
            "reportedRed": 81,
            "inferredRed": 76,
            "playerTrialScore": 40,
            "oppTrialScore": -40,
            "playerTotalScore": -204,
            "oppTotalScore": -596,
            "waitTime": 2239.9370510460935,
            "responseTime": 1642578439851,
            "catchQuestion": "How many <b class=\"r\">red<\/b> marbles did you actually draw (before any changes)? ",
            "catchKey": -1,
            "catchResponse": -1,
            "catchTime": 1642578387102,
            "trialTime": 0
        },
        {
            "exptPart": "trial",
            "trialNumber": 100,
            "roleCurrent": "receiver",
            "marblesSampled": 100,
            "probRed": 0.5,
            "lambda": 5,
            "drawnRed": 78,
            "reportedRed": 83,
            "inferredRed": 60,
            "playerTrialScore": -18,
            "oppTrialScore": 0,
            "playerTotalScore": -222,
            "oppTotalScore": -596,
            "waitTime": 6378.658823937443,
            "responseTime": 1642578448884,
            "catchQuestion": "How many <b class=\"r\">red<\/b> marbles did you actually draw (before any changes)? ",
            "catchKey": -1,
            "catchResponse": -1,
            "catchTime": 1642578448884,
            "trialTime": 0
        }
    ]
}