{
    "client": {
        "type": "sona",
        "experiment_id": 2228,
        "credit_token": "b315147ae43241ea9c65086cb510cfb7",
        "survey_code": "36708",
        "sid": "sona-36708",
        "window": {
            "width": 1920,
            "height": 944
        },
        "screen": {
            "width": 1920,
            "height": 1080
        },
        "userAgent": "Mozilla\/5.0 (Macintosh; Intel Mac OS X 10_15_7) AppleWebKit\/537.36 (KHTML, like Gecko) Chrome\/96.0.4664.110 Safari\/537.36",
        "score": 0,
        "bonus": 0
    },
    "expt": {
        "saveURL": "submit.simple.php",
        "trials": 100,
        "practiceTrials": 2,
        "marblesSampled": 100,
        "probRed": 0.5,
        "lambdaAI": 5,
        "roleFirst": "receiver",
        "roles": [
            "sender",
            "receiver"
        ],
        "cost": "unif",
        "goal": "under",
        "catchTrials": [
            1,
            37,
            45,
            89,
            8,
            22,
            85,
            72,
            90,
            68
        ],
        "scoreTotal": {
            "player": -157,
            "opp": -476
        },
        "sona": {
            "experiment_id": 2228,
            "credit_token": "b315147ae43241ea9c65086cb510cfb7"
        },
        "pilot": false,
        "debug": false
    },
    "trials": [
        {
            "exptPart": "practice",
            "trialNumber": 1,
            "roleCurrent": "sender",
            "marblesSampled": 100,
            "probRed": 0.5,
            "lambda": 5,
            "drawnRed": 51,
            "reportedRed": 55,
            "inferredRed": 58,
            "playerTrialScore": 0,
            "oppTrialScore": -7,
            "playerTotalScore": 0,
            "oppTotalScore": -7,
            "waitTime": 2460.5069583352715,
            "responseTime": 1642205292696,
            "catchQuestion": "How many <b class=\"r\">red<\/b> marbles did you actually draw (before any changes)? ",
            "catchKey": 51,
            "catchResponse": 51,
            "catchTime": 1642205292696,
            "trialTime": 0
        },
        {
            "exptPart": "practice",
            "trialNumber": 2,
            "roleCurrent": "receiver",
            "marblesSampled": 100,
            "probRed": 0.5,
            "lambda": 5,
            "drawnRed": 60,
            "reportedRed": 55,
            "inferredRed": 53,
            "playerTrialScore": -7,
            "oppTrialScore": 7,
            "playerTotalScore": -7,
            "oppTotalScore": 0,
            "waitTime": 7008.520748599798,
            "responseTime": 1642205343408,
            "catchQuestion": "How many <b class=\"r\">red<\/b> marbles did your opponent report drawing? ",
            "catchKey": 55,
            "catchResponse": 55,
            "catchTime": 1642205343409,
            "trialTime": 0
        },
        {
            "exptPart": "trial",
            "trialNumber": 1,
            "roleCurrent": "receiver",
            "marblesSampled": 100,
            "probRed": 0.5,
            "lambda": 5,
            "drawnRed": 36,
            "reportedRed": 31,
            "inferredRed": 36,
            "playerTrialScore": 0,
            "oppTrialScore": 0,
            "playerTotalScore": 0,
            "oppTotalScore": 0,
            "waitTime": 5726.611450465778,
            "responseTime": 1642205385494,
            "catchQuestion": "How many <b class=\"r\">red<\/b> marbles did your opponent report drawing? ",
            "catchKey": -1,
            "catchResponse": -1,
            "catchTime": 1642205343409,
            "trialTime": 0
        },
        {
            "exptPart": "trial",
            "trialNumber": 2,
            "roleCurrent": "sender",
            "marblesSampled": 100,
            "probRed": 0.5,
            "lambda": 5,
            "drawnRed": 40,
            "reportedRed": 33,
            "inferredRed": 39,
            "playerTrialScore": 1,
            "oppTrialScore": -1,
            "playerTotalScore": 1,
            "oppTotalScore": -1,
            "waitTime": 2399.5876471757433,
            "responseTime": 1642205411338,
            "catchQuestion": "How many <b class=\"r\">red<\/b> marbles did you actually draw (before any changes)? ",
            "catchKey": 40,
            "catchResponse": 40,
            "catchTime": 1642205411338,
            "trialTime": 0
        },
        {
            "exptPart": "trial",
            "trialNumber": 3,
            "roleCurrent": "receiver",
            "marblesSampled": 100,
            "probRed": 0.5,
            "lambda": 5,
            "drawnRed": 67,
            "reportedRed": 62,
            "inferredRed": 58,
            "playerTrialScore": -9,
            "oppTrialScore": 9,
            "playerTotalScore": -8,
            "oppTotalScore": 8,
            "waitTime": 6295.402531832868,
            "responseTime": 1642205450376,
            "catchQuestion": "How many <b class=\"r\">red<\/b> marbles did you actually draw (before any changes)? ",
            "catchKey": -1,
            "catchResponse": -1,
            "catchTime": 1642205411338,
            "trialTime": 0
        },
        {
            "exptPart": "trial",
            "trialNumber": 4,
            "roleCurrent": "sender",
            "marblesSampled": 100,
            "probRed": 0.5,
            "lambda": 5,
            "drawnRed": 79,
            "reportedRed": 79,
            "inferredRed": 81,
            "playerTrialScore": 0,
            "oppTrialScore": -2,
            "playerTotalScore": -8,
            "oppTotalScore": 6,
            "waitTime": 2916.700618003779,
            "responseTime": 1642205466103,
            "catchQuestion": "How many <b class=\"r\">red<\/b> marbles did you actually draw (before any changes)? ",
            "catchKey": -1,
            "catchResponse": -1,
            "catchTime": 1642205411338,
            "trialTime": 0
        },
        {
            "exptPart": "trial",
            "trialNumber": 5,
            "roleCurrent": "receiver",
            "marblesSampled": 100,
            "probRed": 0.5,
            "lambda": 5,
            "drawnRed": 57,
            "reportedRed": 51,
            "inferredRed": 57,
            "playerTrialScore": 0,
            "oppTrialScore": 0,
            "playerTotalScore": -8,
            "oppTotalScore": 6,
            "waitTime": 5713.119283615264,
            "responseTime": 1642205505663,
            "catchQuestion": "How many <b class=\"r\">red<\/b> marbles did you actually draw (before any changes)? ",
            "catchKey": -1,
            "catchResponse": -1,
            "catchTime": 1642205505663,
            "trialTime": 0
        },
        {
            "exptPart": "trial",
            "trialNumber": 6,
            "roleCurrent": "sender",
            "marblesSampled": 100,
            "probRed": 0.5,
            "lambda": 5,
            "drawnRed": 83,
            "reportedRed": 57,
            "inferredRed": 64,
            "playerTrialScore": 19,
            "oppTrialScore": -19,
            "playerTotalScore": 11,
            "oppTotalScore": -13,
            "waitTime": 2573.0522440731143,
            "responseTime": 1642205586874,
            "catchQuestion": "How many <b class=\"r\">red<\/b> marbles did you actually draw (before any changes)? ",
            "catchKey": -1,
            "catchResponse": -1,
            "catchTime": 1642205505663,
            "trialTime": 0
        },
        {
            "exptPart": "trial",
            "trialNumber": 7,
            "roleCurrent": "receiver",
            "marblesSampled": 100,
            "probRed": 0.5,
            "lambda": 5,
            "drawnRed": 50,
            "reportedRed": 46,
            "inferredRed": 40,
            "playerTrialScore": -10,
            "oppTrialScore": 10,
            "playerTotalScore": 1,
            "oppTotalScore": -3,
            "waitTime": 5570.934469273736,
            "responseTime": 1642205607709,
            "catchQuestion": "How many <b class=\"r\">red<\/b> marbles did you actually draw (before any changes)? ",
            "catchKey": -1,
            "catchResponse": -1,
            "catchTime": 1642205505663,
            "trialTime": 0
        },
        {
            "exptPart": "trial",
            "trialNumber": 8,
            "roleCurrent": "sender",
            "marblesSampled": 100,
            "probRed": 0.5,
            "lambda": 5,
            "drawnRed": 60,
            "reportedRed": 45,
            "inferredRed": 49,
            "playerTrialScore": 11,
            "oppTrialScore": -11,
            "playerTotalScore": 12,
            "oppTotalScore": -14,
            "waitTime": 3117.4849685185,
            "responseTime": 1642205644371,
            "catchQuestion": "How many <b class=\"r\">red<\/b> marbles did you actually draw (before any changes)? ",
            "catchKey": -1,
            "catchResponse": -1,
            "catchTime": 1642205505663,
            "trialTime": 0
        },
        {
            "exptPart": "trial",
            "trialNumber": 9,
            "roleCurrent": "receiver",
            "marblesSampled": 100,
            "probRed": 0.5,
            "lambda": 5,
            "drawnRed": 38,
            "reportedRed": 31,
            "inferredRed": 45,
            "playerTrialScore": -7,
            "oppTrialScore": 0,
            "playerTotalScore": 5,
            "oppTotalScore": -14,
            "waitTime": 5294.075132727759,
            "responseTime": 1642205658834,
            "catchQuestion": "How many <b class=\"r\">red<\/b> marbles did your opponent report drawing? ",
            "catchKey": 31,
            "catchResponse": 31,
            "catchTime": 1642205658834,
            "trialTime": 0
        },
        {
            "exptPart": "trial",
            "trialNumber": 10,
            "roleCurrent": "sender",
            "marblesSampled": 100,
            "probRed": 0.5,
            "lambda": 5,
            "drawnRed": 60,
            "reportedRed": 47,
            "inferredRed": 52,
            "playerTrialScore": 8,
            "oppTrialScore": -8,
            "playerTotalScore": 13,
            "oppTotalScore": -22,
            "waitTime": 2790.800533317496,
            "responseTime": 1642205697348,
            "catchQuestion": "How many <b class=\"r\">red<\/b> marbles did your opponent report drawing? ",
            "catchKey": -1,
            "catchResponse": -1,
            "catchTime": 1642205697348,
            "trialTime": 0
        },
        {
            "exptPart": "trial",
            "trialNumber": 11,
            "roleCurrent": "receiver",
            "marblesSampled": 100,
            "probRed": 0.5,
            "lambda": 5,
            "drawnRed": 93,
            "reportedRed": 86,
            "inferredRed": 75,
            "playerTrialScore": -18,
            "oppTrialScore": 18,
            "playerTotalScore": -5,
            "oppTotalScore": -4,
            "waitTime": 7287.203401487914,
            "responseTime": 1642205724570,
            "catchQuestion": "How many <b class=\"r\">red<\/b> marbles did your opponent report drawing? ",
            "catchKey": -1,
            "catchResponse": -1,
            "catchTime": 1642205697348,
            "trialTime": 0
        },
        {
            "exptPart": "trial",
            "trialNumber": 12,
            "roleCurrent": "sender",
            "marblesSampled": 100,
            "probRed": 0.5,
            "lambda": 5,
            "drawnRed": 22,
            "reportedRed": 41,
            "inferredRed": 46,
            "playerTrialScore": 0,
            "oppTrialScore": -24,
            "playerTotalScore": -5,
            "oppTotalScore": -28,
            "waitTime": 2999.378439189243,
            "responseTime": 1642205765074,
            "catchQuestion": "How many <b class=\"r\">red<\/b> marbles did your opponent report drawing? ",
            "catchKey": -1,
            "catchResponse": -1,
            "catchTime": 1642205697348,
            "trialTime": 0
        },
        {
            "exptPart": "trial",
            "trialNumber": 13,
            "roleCurrent": "receiver",
            "marblesSampled": 100,
            "probRed": 0.5,
            "lambda": 5,
            "drawnRed": 36,
            "reportedRed": 32,
            "inferredRed": 40,
            "playerTrialScore": -4,
            "oppTrialScore": 0,
            "playerTotalScore": -9,
            "oppTotalScore": -28,
            "waitTime": 5547.045733372585,
            "responseTime": 1642205776301,
            "catchQuestion": "How many <b class=\"r\">red<\/b> marbles did your opponent report drawing? ",
            "catchKey": -1,
            "catchResponse": -1,
            "catchTime": 1642205697348,
            "trialTime": 0
        },
        {
            "exptPart": "trial",
            "trialNumber": 14,
            "roleCurrent": "sender",
            "marblesSampled": 100,
            "probRed": 0.5,
            "lambda": 5,
            "drawnRed": 60,
            "reportedRed": 45,
            "inferredRed": 51,
            "playerTrialScore": 9,
            "oppTrialScore": -9,
            "playerTotalScore": 0,
            "oppTotalScore": -37,
            "waitTime": 2798.8837180795363,
            "responseTime": 1642205858590,
            "catchQuestion": "How many <b class=\"r\">red<\/b> marbles did your opponent report drawing? ",
            "catchKey": -1,
            "catchResponse": -1,
            "catchTime": 1642205697348,
            "trialTime": 0
        },
        {
            "exptPart": "trial",
            "trialNumber": 15,
            "roleCurrent": "receiver",
            "marblesSampled": 100,
            "probRed": 0.5,
            "lambda": 5,
            "drawnRed": 28,
            "reportedRed": 23,
            "inferredRed": 37,
            "playerTrialScore": -9,
            "oppTrialScore": 0,
            "playerTotalScore": -9,
            "oppTotalScore": -37,
            "waitTime": 5856.364900389779,
            "responseTime": 1642205873609,
            "catchQuestion": "How many <b class=\"r\">red<\/b> marbles did your opponent report drawing? ",
            "catchKey": -1,
            "catchResponse": -1,
            "catchTime": 1642205873610,
            "trialTime": 0
        },
        {
            "exptPart": "trial",
            "trialNumber": 16,
            "roleCurrent": "sender",
            "marblesSampled": 100,
            "probRed": 0.5,
            "lambda": 5,
            "drawnRed": 72,
            "reportedRed": 21,
            "inferredRed": 25,
            "playerTrialScore": 47,
            "oppTrialScore": -47,
            "playerTotalScore": 38,
            "oppTotalScore": -84,
            "waitTime": 2289.1770336368054,
            "responseTime": 1642205934311,
            "catchQuestion": "How many <b class=\"r\">red<\/b> marbles did your opponent report drawing? ",
            "catchKey": -1,
            "catchResponse": -1,
            "catchTime": 1642205873610,
            "trialTime": 0
        },
        {
            "exptPart": "trial",
            "trialNumber": 17,
            "roleCurrent": "receiver",
            "marblesSampled": 100,
            "probRed": 0.5,
            "lambda": 5,
            "drawnRed": 77,
            "reportedRed": 69,
            "inferredRed": 80,
            "playerTrialScore": -3,
            "oppTrialScore": 0,
            "playerTotalScore": 35,
            "oppTotalScore": -84,
            "waitTime": 6966.731014280183,
            "responseTime": 1642205954147,
            "catchQuestion": "How many <b class=\"r\">red<\/b> marbles did your opponent report drawing? ",
            "catchKey": -1,
            "catchResponse": -1,
            "catchTime": 1642205873610,
            "trialTime": 0
        },
        {
            "exptPart": "trial",
            "trialNumber": 18,
            "roleCurrent": "sender",
            "marblesSampled": 100,
            "probRed": 0.5,
            "lambda": 5,
            "drawnRed": 71,
            "reportedRed": 0,
            "inferredRed": 5,
            "playerTrialScore": 66,
            "oppTrialScore": -66,
            "playerTotalScore": 101,
            "oppTotalScore": -150,
            "waitTime": 2613.309476566679,
            "responseTime": 1642206012940,
            "catchQuestion": "How many <b class=\"r\">red<\/b> marbles did your opponent report drawing? ",
            "catchKey": -1,
            "catchResponse": -1,
            "catchTime": 1642205873610,
            "trialTime": 0
        },
        {
            "exptPart": "trial",
            "trialNumber": 19,
            "roleCurrent": "receiver",
            "marblesSampled": 100,
            "probRed": 0.5,
            "lambda": 5,
            "drawnRed": 34,
            "reportedRed": 30,
            "inferredRed": 45,
            "playerTrialScore": -11,
            "oppTrialScore": 0,
            "playerTotalScore": 90,
            "oppTotalScore": -150,
            "waitTime": 7354.579373141511,
            "responseTime": 1642206025732,
            "catchQuestion": "How many <b class=\"r\">red<\/b> marbles did your opponent report drawing? ",
            "catchKey": -1,
            "catchResponse": -1,
            "catchTime": 1642205873610,
            "trialTime": 0
        },
        {
            "exptPart": "trial",
            "trialNumber": 20,
            "roleCurrent": "sender",
            "marblesSampled": 100,
            "probRed": 0.5,
            "lambda": 5,
            "drawnRed": 55,
            "reportedRed": 35,
            "inferredRed": 37,
            "playerTrialScore": 18,
            "oppTrialScore": -18,
            "playerTotalScore": 108,
            "oppTotalScore": -168,
            "waitTime": 2746.317589337522,
            "responseTime": 1642206044156,
            "catchQuestion": "How many <b class=\"r\">red<\/b> marbles did your opponent report drawing? ",
            "catchKey": -1,
            "catchResponse": -1,
            "catchTime": 1642206044157,
            "trialTime": 0
        },
        {
            "exptPart": "trial",
            "trialNumber": 21,
            "roleCurrent": "receiver",
            "marblesSampled": 100,
            "probRed": 0.5,
            "lambda": 5,
            "drawnRed": 62,
            "reportedRed": 57,
            "inferredRed": 66,
            "playerTrialScore": -4,
            "oppTrialScore": 0,
            "playerTotalScore": 104,
            "oppTotalScore": -168,
            "waitTime": 5900.466759363721,
            "responseTime": 1642206066859,
            "catchQuestion": "How many <b class=\"r\">red<\/b> marbles did your opponent report drawing? ",
            "catchKey": -1,
            "catchResponse": -1,
            "catchTime": 1642206044157,
            "trialTime": 0
        },
        {
            "exptPart": "trial",
            "trialNumber": 22,
            "roleCurrent": "sender",
            "marblesSampled": 100,
            "probRed": 0.5,
            "lambda": 5,
            "drawnRed": 53,
            "reportedRed": 36,
            "inferredRed": 39,
            "playerTrialScore": 14,
            "oppTrialScore": -14,
            "playerTotalScore": 118,
            "oppTotalScore": -182,
            "waitTime": 2130.381481953687,
            "responseTime": 1642206082878,
            "catchQuestion": "How many <b class=\"r\">red<\/b> marbles did your opponent report drawing? ",
            "catchKey": -1,
            "catchResponse": -1,
            "catchTime": 1642206044157,
            "trialTime": 0
        },
        {
            "exptPart": "trial",
            "trialNumber": 23,
            "roleCurrent": "receiver",
            "marblesSampled": 100,
            "probRed": 0.5,
            "lambda": 5,
            "drawnRed": 38,
            "reportedRed": 31,
            "inferredRed": 46,
            "playerTrialScore": -8,
            "oppTrialScore": 0,
            "playerTotalScore": 110,
            "oppTotalScore": -182,
            "waitTime": 5314.3113520472425,
            "responseTime": 1642206095860,
            "catchQuestion": "How many <b class=\"r\">red<\/b> marbles did your opponent report drawing? ",
            "catchKey": 31,
            "catchResponse": 35,
            "catchTime": 1642206095860,
            "trialTime": 0
        },
        {
            "exptPart": "trial",
            "trialNumber": 24,
            "roleCurrent": "sender",
            "marblesSampled": 100,
            "probRed": 0.5,
            "lambda": 5,
            "drawnRed": 25,
            "reportedRed": 1,
            "inferredRed": 5,
            "playerTrialScore": 20,
            "oppTrialScore": -20,
            "playerTotalScore": 130,
            "oppTotalScore": -202,
            "waitTime": 2278.2882419150765,
            "responseTime": 1642206139327,
            "catchQuestion": "How many <b class=\"r\">red<\/b> marbles did your opponent report drawing? ",
            "catchKey": -1,
            "catchResponse": -1,
            "catchTime": 1642206095860,
            "trialTime": 0
        },
        {
            "exptPart": "trial",
            "trialNumber": 25,
            "roleCurrent": "receiver",
            "marblesSampled": 100,
            "probRed": 0.5,
            "lambda": 5,
            "drawnRed": 13,
            "reportedRed": 10,
            "inferredRed": 25,
            "playerTrialScore": -12,
            "oppTrialScore": 0,
            "playerTotalScore": 118,
            "oppTotalScore": -202,
            "waitTime": 5297.848544950362,
            "responseTime": 1642206152713,
            "catchQuestion": "How many <b class=\"r\">red<\/b> marbles did your opponent report drawing? ",
            "catchKey": -1,
            "catchResponse": -1,
            "catchTime": 1642206152713,
            "trialTime": 0
        },
        {
            "exptPart": "trial",
            "trialNumber": 26,
            "roleCurrent": "sender",
            "marblesSampled": 100,
            "probRed": 0.5,
            "lambda": 5,
            "drawnRed": 52,
            "reportedRed": 35,
            "inferredRed": 38,
            "playerTrialScore": 14,
            "oppTrialScore": -14,
            "playerTotalScore": 132,
            "oppTotalScore": -216,
            "waitTime": 2824.5755256465177,
            "responseTime": 1642206203746,
            "catchQuestion": "How many <b class=\"r\">red<\/b> marbles did your opponent report drawing? ",
            "catchKey": -1,
            "catchResponse": -1,
            "catchTime": 1642206152713,
            "trialTime": 0
        },
        {
            "exptPart": "trial",
            "trialNumber": 27,
            "roleCurrent": "receiver",
            "marblesSampled": 100,
            "probRed": 0.5,
            "lambda": 5,
            "drawnRed": 50,
            "reportedRed": 47,
            "inferredRed": 67,
            "playerTrialScore": -17,
            "oppTrialScore": 0,
            "playerTotalScore": 115,
            "oppTotalScore": -216,
            "waitTime": 6585.659360598116,
            "responseTime": 1642206218149,
            "catchQuestion": "How many <b class=\"r\">red<\/b> marbles did your opponent report drawing? ",
            "catchKey": -1,
            "catchResponse": -1,
            "catchTime": 1642206152713,
            "trialTime": 0
        },
        {
            "exptPart": "trial",
            "trialNumber": 28,
            "roleCurrent": "sender",
            "marblesSampled": 100,
            "probRed": 0.5,
            "lambda": 5,
            "drawnRed": 40,
            "reportedRed": 27,
            "inferredRed": 30,
            "playerTrialScore": 10,
            "oppTrialScore": -10,
            "playerTotalScore": 125,
            "oppTotalScore": -226,
            "waitTime": 2357.4066301251814,
            "responseTime": 1642206233731,
            "catchQuestion": "How many <b class=\"r\">red<\/b> marbles did your opponent report drawing? ",
            "catchKey": -1,
            "catchResponse": -1,
            "catchTime": 1642206152713,
            "trialTime": 0
        },
        {
            "exptPart": "trial",
            "trialNumber": 29,
            "roleCurrent": "receiver",
            "marblesSampled": 100,
            "probRed": 0.5,
            "lambda": 5,
            "drawnRed": 47,
            "reportedRed": 41,
            "inferredRed": 58,
            "playerTrialScore": -11,
            "oppTrialScore": 0,
            "playerTotalScore": 114,
            "oppTotalScore": -226,
            "waitTime": 5186.308631808459,
            "responseTime": 1642206247903,
            "catchQuestion": "How many <b class=\"r\">red<\/b> marbles did your opponent report drawing? ",
            "catchKey": -1,
            "catchResponse": -1,
            "catchTime": 1642206152713,
            "trialTime": 0
        },
        {
            "exptPart": "trial",
            "trialNumber": 30,
            "roleCurrent": "sender",
            "marblesSampled": 100,
            "probRed": 0.5,
            "lambda": 5,
            "drawnRed": 77,
            "reportedRed": 38,
            "inferredRed": 47,
            "playerTrialScore": 30,
            "oppTrialScore": -30,
            "playerTotalScore": 144,
            "oppTotalScore": -256,
            "waitTime": 2989.277753796023,
            "responseTime": 1642206282323,
            "catchQuestion": "How many <b class=\"r\">red<\/b> marbles did your opponent report drawing? ",
            "catchKey": -1,
            "catchResponse": -1,
            "catchTime": 1642206282323,
            "trialTime": 0
        },
        {
            "exptPart": "trial",
            "trialNumber": 31,
            "roleCurrent": "receiver",
            "marblesSampled": 100,
            "probRed": 0.5,
            "lambda": 5,
            "drawnRed": 35,
            "reportedRed": 29,
            "inferredRed": 45,
            "playerTrialScore": -10,
            "oppTrialScore": 0,
            "playerTotalScore": 134,
            "oppTotalScore": -256,
            "waitTime": 6916.955007066937,
            "responseTime": 1642206318234,
            "catchQuestion": "How many <b class=\"r\">red<\/b> marbles did your opponent report drawing? ",
            "catchKey": -1,
            "catchResponse": -1,
            "catchTime": 1642206282323,
            "trialTime": 0
        },
        {
            "exptPart": "trial",
            "trialNumber": 32,
            "roleCurrent": "sender",
            "marblesSampled": 100,
            "probRed": 0.5,
            "lambda": 5,
            "drawnRed": 50,
            "reportedRed": 32,
            "inferredRed": 39,
            "playerTrialScore": 11,
            "oppTrialScore": -11,
            "playerTotalScore": 145,
            "oppTotalScore": -267,
            "waitTime": 3186.9045986805168,
            "responseTime": 1642206352904,
            "catchQuestion": "How many <b class=\"r\">red<\/b> marbles did your opponent report drawing? ",
            "catchKey": -1,
            "catchResponse": -1,
            "catchTime": 1642206282323,
            "trialTime": 0
        },
        {
            "exptPart": "trial",
            "trialNumber": 33,
            "roleCurrent": "receiver",
            "marblesSampled": 100,
            "probRed": 0.5,
            "lambda": 5,
            "drawnRed": 88,
            "reportedRed": 81,
            "inferredRed": 66,
            "playerTrialScore": -22,
            "oppTrialScore": 22,
            "playerTotalScore": 123,
            "oppTotalScore": -245,
            "waitTime": 5560.219871778179,
            "responseTime": 1642206369237,
            "catchQuestion": "How many <b class=\"r\">red<\/b> marbles did your opponent report drawing? ",
            "catchKey": -1,
            "catchResponse": -1,
            "catchTime": 1642206282323,
            "trialTime": 0
        },
        {
            "exptPart": "trial",
            "trialNumber": 34,
            "roleCurrent": "sender",
            "marblesSampled": 100,
            "probRed": 0.5,
            "lambda": 5,
            "drawnRed": 48,
            "reportedRed": 31,
            "inferredRed": 44,
            "playerTrialScore": 4,
            "oppTrialScore": -4,
            "playerTotalScore": 127,
            "oppTotalScore": -249,
            "waitTime": 2890.2453338896303,
            "responseTime": 1642206388084,
            "catchQuestion": "How many <b class=\"r\">red<\/b> marbles did your opponent report drawing? ",
            "catchKey": -1,
            "catchResponse": -1,
            "catchTime": 1642206282323,
            "trialTime": 0
        },
        {
            "exptPart": "trial",
            "trialNumber": 35,
            "roleCurrent": "receiver",
            "marblesSampled": 100,
            "probRed": 0.5,
            "lambda": 5,
            "drawnRed": 56,
            "reportedRed": 51,
            "inferredRed": 68,
            "playerTrialScore": -12,
            "oppTrialScore": 0,
            "playerTotalScore": 115,
            "oppTotalScore": -249,
            "waitTime": 5207.984430230697,
            "responseTime": 1642206399312,
            "catchQuestion": "How many <b class=\"r\">red<\/b> marbles did your opponent report drawing? ",
            "catchKey": -1,
            "catchResponse": -1,
            "catchTime": 1642206399314,
            "trialTime": 0
        },
        {
            "exptPart": "trial",
            "trialNumber": 36,
            "roleCurrent": "sender",
            "marblesSampled": 100,
            "probRed": 0.5,
            "lambda": 5,
            "drawnRed": 55,
            "reportedRed": 36,
            "inferredRed": 42,
            "playerTrialScore": 13,
            "oppTrialScore": -13,
            "playerTotalScore": 128,
            "oppTotalScore": -262,
            "waitTime": 3194.627557785739,
            "responseTime": 1642206421193,
            "catchQuestion": "How many <b class=\"r\">red<\/b> marbles did your opponent report drawing? ",
            "catchKey": -1,
            "catchResponse": -1,
            "catchTime": 1642206399314,
            "trialTime": 0
        },
        {
            "exptPart": "trial",
            "trialNumber": 37,
            "roleCurrent": "receiver",
            "marblesSampled": 100,
            "probRed": 0.5,
            "lambda": 5,
            "drawnRed": 23,
            "reportedRed": 18,
            "inferredRed": 45,
            "playerTrialScore": -22,
            "oppTrialScore": 0,
            "playerTotalScore": 106,
            "oppTotalScore": -262,
            "waitTime": 7183.979307527374,
            "responseTime": 1642206432682,
            "catchQuestion": "How many <b class=\"r\">red<\/b> marbles did your opponent report drawing? ",
            "catchKey": -1,
            "catchResponse": -1,
            "catchTime": 1642206399314,
            "trialTime": 0
        },
        {
            "exptPart": "trial",
            "trialNumber": 38,
            "roleCurrent": "sender",
            "marblesSampled": 100,
            "probRed": 0.5,
            "lambda": 5,
            "drawnRed": 59,
            "reportedRed": 38,
            "inferredRed": 42,
            "playerTrialScore": 17,
            "oppTrialScore": -17,
            "playerTotalScore": 123,
            "oppTotalScore": -279,
            "waitTime": 2927.9880675419518,
            "responseTime": 1642206450654,
            "catchQuestion": "How many <b class=\"r\">red<\/b> marbles did you actually draw (before any changes)? ",
            "catchKey": 59,
            "catchResponse": 50,
            "catchTime": 1642206450654,
            "trialTime": 0
        },
        {
            "exptPart": "trial",
            "trialNumber": 39,
            "roleCurrent": "receiver",
            "marblesSampled": 100,
            "probRed": 0.5,
            "lambda": 5,
            "drawnRed": 51,
            "reportedRed": 41,
            "inferredRed": 59,
            "playerTrialScore": -8,
            "oppTrialScore": 0,
            "playerTotalScore": 115,
            "oppTotalScore": -279,
            "waitTime": 6031.773320141139,
            "responseTime": 1642206481865,
            "catchQuestion": "How many <b class=\"r\">red<\/b> marbles did you actually draw (before any changes)? ",
            "catchKey": -1,
            "catchResponse": -1,
            "catchTime": 1642206450654,
            "trialTime": 0
        },
        {
            "exptPart": "trial",
            "trialNumber": 40,
            "roleCurrent": "sender",
            "marblesSampled": 100,
            "probRed": 0.5,
            "lambda": 5,
            "drawnRed": 72,
            "reportedRed": 38,
            "inferredRed": 47,
            "playerTrialScore": 25,
            "oppTrialScore": -25,
            "playerTotalScore": 140,
            "oppTotalScore": -304,
            "waitTime": 2903.1759112183554,
            "responseTime": 1642206505109,
            "catchQuestion": "How many <b class=\"r\">red<\/b> marbles did you actually draw (before any changes)? ",
            "catchKey": -1,
            "catchResponse": -1,
            "catchTime": 1642206505110,
            "trialTime": 0
        },
        {
            "exptPart": "trial",
            "trialNumber": 41,
            "roleCurrent": "receiver",
            "marblesSampled": 100,
            "probRed": 0.5,
            "lambda": 5,
            "drawnRed": 17,
            "reportedRed": 13,
            "inferredRed": 45,
            "playerTrialScore": -28,
            "oppTrialScore": 0,
            "playerTotalScore": 112,
            "oppTotalScore": -304,
            "waitTime": 7192.259777973309,
            "responseTime": 1642206520756,
            "catchQuestion": "How many <b class=\"r\">red<\/b> marbles did you actually draw (before any changes)? ",
            "catchKey": -1,
            "catchResponse": -1,
            "catchTime": 1642206505110,
            "trialTime": 0
        },
        {
            "exptPart": "trial",
            "trialNumber": 42,
            "roleCurrent": "sender",
            "marblesSampled": 100,
            "probRed": 0.5,
            "lambda": 5,
            "drawnRed": 35,
            "reportedRed": 64,
            "inferredRed": 74,
            "playerTrialScore": 0,
            "oppTrialScore": -39,
            "playerTotalScore": 112,
            "oppTotalScore": -343,
            "waitTime": 2155.0006072574342,
            "responseTime": 1642206553347,
            "catchQuestion": "How many <b class=\"r\">red<\/b> marbles did you actually draw (before any changes)? ",
            "catchKey": -1,
            "catchResponse": -1,
            "catchTime": 1642206505110,
            "trialTime": 0
        },
        {
            "exptPart": "trial",
            "trialNumber": 43,
            "roleCurrent": "receiver",
            "marblesSampled": 100,
            "probRed": 0.5,
            "lambda": 5,
            "drawnRed": 6,
            "reportedRed": 0,
            "inferredRed": 50,
            "playerTrialScore": -44,
            "oppTrialScore": 0,
            "playerTotalScore": 68,
            "oppTotalScore": -343,
            "waitTime": 6618.13241061195,
            "responseTime": 1642206564330,
            "catchQuestion": "How many <b class=\"r\">red<\/b> marbles did you actually draw (before any changes)? ",
            "catchKey": -1,
            "catchResponse": -1,
            "catchTime": 1642206505110,
            "trialTime": 0
        },
        {
            "exptPart": "trial",
            "trialNumber": 44,
            "roleCurrent": "sender",
            "marblesSampled": 100,
            "probRed": 0.5,
            "lambda": 5,
            "drawnRed": 80,
            "reportedRed": 100,
            "inferredRed": 100,
            "playerTrialScore": 0,
            "oppTrialScore": -20,
            "playerTotalScore": 68,
            "oppTotalScore": -363,
            "waitTime": 2700.7024734034253,
            "responseTime": 1642206587754,
            "catchQuestion": "How many <b class=\"r\">red<\/b> marbles did you actually draw (before any changes)? ",
            "catchKey": -1,
            "catchResponse": -1,
            "catchTime": 1642206505110,
            "trialTime": 0
        },
        {
            "exptPart": "trial",
            "trialNumber": 45,
            "roleCurrent": "receiver",
            "marblesSampled": 100,
            "probRed": 0.5,
            "lambda": 5,
            "drawnRed": 34,
            "reportedRed": 31,
            "inferredRed": 50,
            "playerTrialScore": -16,
            "oppTrialScore": 0,
            "playerTotalScore": 52,
            "oppTotalScore": -363,
            "waitTime": 6291.603280370329,
            "responseTime": 1642206598159,
            "catchQuestion": "How many <b class=\"r\">red<\/b> marbles did you actually draw (before any changes)? ",
            "catchKey": -1,
            "catchResponse": -1,
            "catchTime": 1642206598159,
            "trialTime": 0
        },
        {
            "exptPart": "trial",
            "trialNumber": 46,
            "roleCurrent": "sender",
            "marblesSampled": 100,
            "probRed": 0.5,
            "lambda": 5,
            "drawnRed": 36,
            "reportedRed": 23,
            "inferredRed": 28,
            "playerTrialScore": 8,
            "oppTrialScore": -8,
            "playerTotalScore": 60,
            "oppTotalScore": -371,
            "waitTime": 2592.3454761266466,
            "responseTime": 1642206655015,
            "catchQuestion": "How many <b class=\"r\">red<\/b> marbles did you actually draw (before any changes)? ",
            "catchKey": 36,
            "catchResponse": 36,
            "catchTime": 1642206655015,
            "trialTime": 0
        },
        {
            "exptPart": "trial",
            "trialNumber": 47,
            "roleCurrent": "receiver",
            "marblesSampled": 100,
            "probRed": 0.5,
            "lambda": 5,
            "drawnRed": 43,
            "reportedRed": 37,
            "inferredRed": 50,
            "playerTrialScore": -7,
            "oppTrialScore": 0,
            "playerTotalScore": 53,
            "oppTotalScore": -371,
            "waitTime": 6955.543894898943,
            "responseTime": 1642206677263,
            "catchQuestion": "How many <b class=\"r\">red<\/b> marbles did you actually draw (before any changes)? ",
            "catchKey": -1,
            "catchResponse": -1,
            "catchTime": 1642206655015,
            "trialTime": 0
        },
        {
            "exptPart": "trial",
            "trialNumber": 48,
            "roleCurrent": "sender",
            "marblesSampled": 100,
            "probRed": 0.5,
            "lambda": 5,
            "drawnRed": 45,
            "reportedRed": 32,
            "inferredRed": 41,
            "playerTrialScore": 4,
            "oppTrialScore": -4,
            "playerTotalScore": 57,
            "oppTotalScore": -375,
            "waitTime": 3189.8890253740233,
            "responseTime": 1642206709762,
            "catchQuestion": "How many <b class=\"r\">red<\/b> marbles did you actually draw (before any changes)? ",
            "catchKey": -1,
            "catchResponse": -1,
            "catchTime": 1642206655015,
            "trialTime": 0
        },
        {
            "exptPart": "trial",
            "trialNumber": 49,
            "roleCurrent": "receiver",
            "marblesSampled": 100,
            "probRed": 0.5,
            "lambda": 5,
            "drawnRed": 63,
            "reportedRed": 59,
            "inferredRed": 80,
            "playerTrialScore": -17,
            "oppTrialScore": 0,
            "playerTotalScore": 40,
            "oppTotalScore": -375,
            "waitTime": 7315.431804970032,
            "responseTime": 1642206768328,
            "catchQuestion": "How many <b class=\"r\">red<\/b> marbles did you actually draw (before any changes)? ",
            "catchKey": -1,
            "catchResponse": -1,
            "catchTime": 1642206655015,
            "trialTime": 0
        },
        {
            "exptPart": "trial",
            "trialNumber": 50,
            "roleCurrent": "sender",
            "marblesSampled": 100,
            "probRed": 0.5,
            "lambda": 5,
            "drawnRed": 91,
            "reportedRed": 100,
            "inferredRed": 100,
            "playerTrialScore": 0,
            "oppTrialScore": -9,
            "playerTotalScore": 40,
            "oppTotalScore": -384,
            "waitTime": 2748.3472924173684,
            "responseTime": 1642206869117,
            "catchQuestion": "How many <b class=\"r\">red<\/b> marbles did you actually draw (before any changes)? ",
            "catchKey": -1,
            "catchResponse": -1,
            "catchTime": 1642206869117,
            "trialTime": 0
        },
        {
            "exptPart": "trial",
            "trialNumber": 51,
            "roleCurrent": "receiver",
            "marblesSampled": 100,
            "probRed": 0.5,
            "lambda": 5,
            "drawnRed": 24,
            "reportedRed": 17,
            "inferredRed": 35,
            "playerTrialScore": -11,
            "oppTrialScore": 0,
            "playerTotalScore": 29,
            "oppTotalScore": -384,
            "waitTime": 5292.698094621073,
            "responseTime": 1642206903143,
            "catchQuestion": "How many <b class=\"r\">red<\/b> marbles did you actually draw (before any changes)? ",
            "catchKey": -1,
            "catchResponse": -1,
            "catchTime": 1642206869117,
            "trialTime": 0
        },
        {
            "exptPart": "trial",
            "trialNumber": 52,
            "roleCurrent": "sender",
            "marblesSampled": 100,
            "probRed": 0.5,
            "lambda": 5,
            "drawnRed": 40,
            "reportedRed": 20,
            "inferredRed": 27,
            "playerTrialScore": 13,
            "oppTrialScore": -13,
            "playerTotalScore": 42,
            "oppTotalScore": -397,
            "waitTime": 3170.54626161568,
            "responseTime": 1642206921562,
            "catchQuestion": "How many <b class=\"r\">red<\/b> marbles did you actually draw (before any changes)? ",
            "catchKey": -1,
            "catchResponse": -1,
            "catchTime": 1642206869117,
            "trialTime": 0
        },
        {
            "exptPart": "trial",
            "trialNumber": 53,
            "roleCurrent": "receiver",
            "marblesSampled": 100,
            "probRed": 0.5,
            "lambda": 5,
            "drawnRed": 76,
            "reportedRed": 73,
            "inferredRed": 60,
            "playerTrialScore": -16,
            "oppTrialScore": 16,
            "playerTotalScore": 26,
            "oppTotalScore": -381,
            "waitTime": 5143.03867953091,
            "responseTime": 1642206930814,
            "catchQuestion": "How many <b class=\"r\">red<\/b> marbles did you actually draw (before any changes)? ",
            "catchKey": -1,
            "catchResponse": -1,
            "catchTime": 1642206869117,
            "trialTime": 0
        },
        {
            "exptPart": "trial",
            "trialNumber": 54,
            "roleCurrent": "sender",
            "marblesSampled": 100,
            "probRed": 0.5,
            "lambda": 5,
            "drawnRed": 8,
            "reportedRed": 1,
            "inferredRed": 4,
            "playerTrialScore": 4,
            "oppTrialScore": -4,
            "playerTotalScore": 30,
            "oppTotalScore": -385,
            "waitTime": 2536.690412520091,
            "responseTime": 1642206952384,
            "catchQuestion": "How many <b class=\"r\">red<\/b> marbles did you actually draw (before any changes)? ",
            "catchKey": -1,
            "catchResponse": -1,
            "catchTime": 1642206869117,
            "trialTime": 0
        },
        {
            "exptPart": "trial",
            "trialNumber": 55,
            "roleCurrent": "receiver",
            "marblesSampled": 100,
            "probRed": 0.5,
            "lambda": 5,
            "drawnRed": 45,
            "reportedRed": 41,
            "inferredRed": 68,
            "playerTrialScore": -23,
            "oppTrialScore": 0,
            "playerTotalScore": 7,
            "oppTotalScore": -385,
            "waitTime": 5617.509134593007,
            "responseTime": 1642207061402,
            "catchQuestion": "How many <b class=\"r\">red<\/b> marbles did you actually draw (before any changes)? ",
            "catchKey": -1,
            "catchResponse": -1,
            "catchTime": 1642207061402,
            "trialTime": 0
        },
        {
            "exptPart": "trial",
            "trialNumber": 56,
            "roleCurrent": "sender",
            "marblesSampled": 100,
            "probRed": 0.5,
            "lambda": 5,
            "drawnRed": 25,
            "reportedRed": 1,
            "inferredRed": 5,
            "playerTrialScore": 20,
            "oppTrialScore": -20,
            "playerTotalScore": 27,
            "oppTotalScore": -405,
            "waitTime": 2110.197306330562,
            "responseTime": 1642207084811,
            "catchQuestion": "How many <b class=\"r\">red<\/b> marbles did you actually draw (before any changes)? ",
            "catchKey": -1,
            "catchResponse": -1,
            "catchTime": 1642207061402,
            "trialTime": 0
        },
        {
            "exptPart": "trial",
            "trialNumber": 57,
            "roleCurrent": "receiver",
            "marblesSampled": 100,
            "probRed": 0.5,
            "lambda": 5,
            "drawnRed": 71,
            "reportedRed": 67,
            "inferredRed": 50,
            "playerTrialScore": -21,
            "oppTrialScore": 21,
            "playerTotalScore": 6,
            "oppTotalScore": -384,
            "waitTime": 6465.833028516405,
            "responseTime": 1642207165699,
            "catchQuestion": "How many <b class=\"r\">red<\/b> marbles did you actually draw (before any changes)? ",
            "catchKey": -1,
            "catchResponse": -1,
            "catchTime": 1642207061402,
            "trialTime": 0
        },
        {
            "exptPart": "trial",
            "trialNumber": 58,
            "roleCurrent": "sender",
            "marblesSampled": 100,
            "probRed": 0.5,
            "lambda": 5,
            "drawnRed": 52,
            "reportedRed": 29,
            "inferredRed": 38,
            "playerTrialScore": 14,
            "oppTrialScore": -14,
            "playerTotalScore": 20,
            "oppTotalScore": -398,
            "waitTime": 2362.306478691985,
            "responseTime": 1642207189392,
            "catchQuestion": "How many <b class=\"r\">red<\/b> marbles did you actually draw (before any changes)? ",
            "catchKey": -1,
            "catchResponse": -1,
            "catchTime": 1642207061402,
            "trialTime": 0
        },
        {
            "exptPart": "trial",
            "trialNumber": 59,
            "roleCurrent": "receiver",
            "marblesSampled": 100,
            "probRed": 0.5,
            "lambda": 5,
            "drawnRed": 40,
            "reportedRed": 38,
            "inferredRed": 50,
            "playerTrialScore": -10,
            "oppTrialScore": 0,
            "playerTotalScore": 10,
            "oppTotalScore": -398,
            "waitTime": 6328.906696786786,
            "responseTime": 1642207232885,
            "catchQuestion": "How many <b class=\"r\">red<\/b> marbles did you actually draw (before any changes)? ",
            "catchKey": -1,
            "catchResponse": -1,
            "catchTime": 1642207061402,
            "trialTime": 0
        },
        {
            "exptPart": "trial",
            "trialNumber": 60,
            "roleCurrent": "sender",
            "marblesSampled": 100,
            "probRed": 0.5,
            "lambda": 5,
            "drawnRed": 58,
            "reportedRed": 37,
            "inferredRed": 40,
            "playerTrialScore": 18,
            "oppTrialScore": -18,
            "playerTotalScore": 28,
            "oppTotalScore": -416,
            "waitTime": 2862.0368168935547,
            "responseTime": 1642207249865,
            "catchQuestion": "How many <b class=\"r\">red<\/b> marbles did you actually draw (before any changes)? ",
            "catchKey": -1,
            "catchResponse": -1,
            "catchTime": 1642207249865,
            "trialTime": 0
        },
        {
            "exptPart": "trial",
            "trialNumber": 61,
            "roleCurrent": "receiver",
            "marblesSampled": 100,
            "probRed": 0.5,
            "lambda": 5,
            "drawnRed": 70,
            "reportedRed": 60,
            "inferredRed": 50,
            "playerTrialScore": -20,
            "oppTrialScore": 20,
            "playerTotalScore": 8,
            "oppTotalScore": -396,
            "waitTime": 7016.323040616124,
            "responseTime": 1642207260765,
            "catchQuestion": "How many <b class=\"r\">red<\/b> marbles did you actually draw (before any changes)? ",
            "catchKey": -1,
            "catchResponse": -1,
            "catchTime": 1642207249865,
            "trialTime": 0
        },
        {
            "exptPart": "trial",
            "trialNumber": 62,
            "roleCurrent": "sender",
            "marblesSampled": 100,
            "probRed": 0.5,
            "lambda": 5,
            "drawnRed": 58,
            "reportedRed": 58,
            "inferredRed": 61,
            "playerTrialScore": 0,
            "oppTrialScore": -3,
            "playerTotalScore": 8,
            "oppTotalScore": -399,
            "waitTime": 2769.4451892953357,
            "responseTime": 1642207268480,
            "catchQuestion": "How many <b class=\"r\">red<\/b> marbles did you actually draw (before any changes)? ",
            "catchKey": -1,
            "catchResponse": -1,
            "catchTime": 1642207249865,
            "trialTime": 0
        },
        {
            "exptPart": "trial",
            "trialNumber": 63,
            "roleCurrent": "receiver",
            "marblesSampled": 100,
            "probRed": 0.5,
            "lambda": 5,
            "drawnRed": 71,
            "reportedRed": 70,
            "inferredRed": 50,
            "playerTrialScore": -21,
            "oppTrialScore": 21,
            "playerTotalScore": -13,
            "oppTotalScore": -378,
            "waitTime": 5948.468006705477,
            "responseTime": 1642207275613,
            "catchQuestion": "How many <b class=\"r\">red<\/b> marbles did you actually draw (before any changes)? ",
            "catchKey": -1,
            "catchResponse": -1,
            "catchTime": 1642207249865,
            "trialTime": 0
        },
        {
            "exptPart": "trial",
            "trialNumber": 64,
            "roleCurrent": "sender",
            "marblesSampled": 100,
            "probRed": 0.5,
            "lambda": 5,
            "drawnRed": 65,
            "reportedRed": 65,
            "inferredRed": 70,
            "playerTrialScore": 0,
            "oppTrialScore": -5,
            "playerTotalScore": -13,
            "oppTotalScore": -383,
            "waitTime": 2416.288782806265,
            "responseTime": 1642207281349,
            "catchQuestion": "How many <b class=\"r\">red<\/b> marbles did you actually draw (before any changes)? ",
            "catchKey": -1,
            "catchResponse": -1,
            "catchTime": 1642207249865,
            "trialTime": 0
        },
        {
            "exptPart": "trial",
            "trialNumber": 65,
            "roleCurrent": "receiver",
            "marblesSampled": 100,
            "probRed": 0.5,
            "lambda": 5,
            "drawnRed": 59,
            "reportedRed": 59,
            "inferredRed": 50,
            "playerTrialScore": -9,
            "oppTrialScore": 9,
            "playerTotalScore": -22,
            "oppTotalScore": -374,
            "waitTime": 5959.602788416989,
            "responseTime": 1642207289084,
            "catchQuestion": "How many <b class=\"r\">red<\/b> marbles did you actually draw (before any changes)? ",
            "catchKey": -1,
            "catchResponse": -1,
            "catchTime": 1642207289084,
            "trialTime": 0
        },
        {
            "exptPart": "trial",
            "trialNumber": 66,
            "roleCurrent": "sender",
            "marblesSampled": 100,
            "probRed": 0.5,
            "lambda": 5,
            "drawnRed": 56,
            "reportedRed": 56,
            "inferredRed": 58,
            "playerTrialScore": 0,
            "oppTrialScore": -2,
            "playerTotalScore": -22,
            "oppTotalScore": -376,
            "waitTime": 2934.0835719819534,
            "responseTime": 1642207298781,
            "catchQuestion": "How many <b class=\"r\">red<\/b> marbles did you actually draw (before any changes)? ",
            "catchKey": -1,
            "catchResponse": -1,
            "catchTime": 1642207289084,
            "trialTime": 0
        },
        {
            "exptPart": "trial",
            "trialNumber": 67,
            "roleCurrent": "receiver",
            "marblesSampled": 100,
            "probRed": 0.5,
            "lambda": 5,
            "drawnRed": 67,
            "reportedRed": 59,
            "inferredRed": 50,
            "playerTrialScore": -17,
            "oppTrialScore": 17,
            "playerTotalScore": -39,
            "oppTotalScore": -359,
            "waitTime": 5419.086752098395,
            "responseTime": 1642207305462,
            "catchQuestion": "How many <b class=\"r\">red<\/b> marbles did you actually draw (before any changes)? ",
            "catchKey": -1,
            "catchResponse": -1,
            "catchTime": 1642207289084,
            "trialTime": 0
        },
        {
            "exptPart": "trial",
            "trialNumber": 68,
            "roleCurrent": "sender",
            "marblesSampled": 100,
            "probRed": 0.5,
            "lambda": 5,
            "drawnRed": 43,
            "reportedRed": 43,
            "inferredRed": 50,
            "playerTrialScore": 0,
            "oppTrialScore": -7,
            "playerTotalScore": -39,
            "oppTotalScore": -366,
            "waitTime": 2554.2445326829384,
            "responseTime": 1642207314484,
            "catchQuestion": "How many <b class=\"r\">red<\/b> marbles did you actually draw (before any changes)? ",
            "catchKey": -1,
            "catchResponse": -1,
            "catchTime": 1642207289084,
            "trialTime": 0
        },
        {
            "exptPart": "trial",
            "trialNumber": 69,
            "roleCurrent": "receiver",
            "marblesSampled": 100,
            "probRed": 0.5,
            "lambda": 5,
            "drawnRed": 41,
            "reportedRed": 36,
            "inferredRed": 50,
            "playerTrialScore": -9,
            "oppTrialScore": 0,
            "playerTotalScore": -48,
            "oppTotalScore": -366,
            "waitTime": 5130.260422250486,
            "responseTime": 1642207321482,
            "catchQuestion": "How many <b class=\"r\">red<\/b> marbles did your opponent report drawing? ",
            "catchKey": 36,
            "catchResponse": 36,
            "catchTime": 1642207321482,
            "trialTime": 0
        },
        {
            "exptPart": "trial",
            "trialNumber": 70,
            "roleCurrent": "sender",
            "marblesSampled": 100,
            "probRed": 0.5,
            "lambda": 5,
            "drawnRed": 62,
            "reportedRed": 62,
            "inferredRed": 64,
            "playerTrialScore": 0,
            "oppTrialScore": -2,
            "playerTotalScore": -48,
            "oppTotalScore": -368,
            "waitTime": 3053.7115422335473,
            "responseTime": 1642207335397,
            "catchQuestion": "How many <b class=\"r\">red<\/b> marbles did your opponent report drawing? ",
            "catchKey": -1,
            "catchResponse": -1,
            "catchTime": 1642207335397,
            "trialTime": 0
        },
        {
            "exptPart": "trial",
            "trialNumber": 71,
            "roleCurrent": "receiver",
            "marblesSampled": 100,
            "probRed": 0.5,
            "lambda": 5,
            "drawnRed": 22,
            "reportedRed": 18,
            "inferredRed": 50,
            "playerTrialScore": -28,
            "oppTrialScore": 0,
            "playerTotalScore": -76,
            "oppTotalScore": -368,
            "waitTime": 6854.9122962888205,
            "responseTime": 1642207347359,
            "catchQuestion": "How many <b class=\"r\">red<\/b> marbles did your opponent report drawing? ",
            "catchKey": -1,
            "catchResponse": -1,
            "catchTime": 1642207335397,
            "trialTime": 0
        },
        {
            "exptPart": "trial",
            "trialNumber": 72,
            "roleCurrent": "sender",
            "marblesSampled": 100,
            "probRed": 0.5,
            "lambda": 5,
            "drawnRed": 25,
            "reportedRed": 25,
            "inferredRed": 27,
            "playerTrialScore": 0,
            "oppTrialScore": -2,
            "playerTotalScore": -76,
            "oppTotalScore": -370,
            "waitTime": 2130.932615356525,
            "responseTime": 1642207354088,
            "catchQuestion": "How many <b class=\"r\">red<\/b> marbles did your opponent report drawing? ",
            "catchKey": -1,
            "catchResponse": -1,
            "catchTime": 1642207335397,
            "trialTime": 0
        },
        {
            "exptPart": "trial",
            "trialNumber": 73,
            "roleCurrent": "receiver",
            "marblesSampled": 100,
            "probRed": 0.5,
            "lambda": 5,
            "drawnRed": 57,
            "reportedRed": 52,
            "inferredRed": 50,
            "playerTrialScore": -7,
            "oppTrialScore": 7,
            "playerTotalScore": -83,
            "oppTotalScore": -363,
            "waitTime": 6367.0847728548215,
            "responseTime": 1642207361719,
            "catchQuestion": "How many <b class=\"r\">red<\/b> marbles did your opponent report drawing? ",
            "catchKey": 52,
            "catchResponse": 37,
            "catchTime": 1642207361719,
            "trialTime": 0
        },
        {
            "exptPart": "trial",
            "trialNumber": 74,
            "roleCurrent": "sender",
            "marblesSampled": 100,
            "probRed": 0.5,
            "lambda": 5,
            "drawnRed": 46,
            "reportedRed": 46,
            "inferredRed": 52,
            "playerTrialScore": 0,
            "oppTrialScore": -6,
            "playerTotalScore": -83,
            "oppTotalScore": -369,
            "waitTime": 2738.9196694088587,
            "responseTime": 1642207376084,
            "catchQuestion": "How many <b class=\"r\">red<\/b> marbles did your opponent report drawing? ",
            "catchKey": -1,
            "catchResponse": -1,
            "catchTime": 1642207361719,
            "trialTime": 0
        },
        {
            "exptPart": "trial",
            "trialNumber": 75,
            "roleCurrent": "receiver",
            "marblesSampled": 100,
            "probRed": 0.5,
            "lambda": 5,
            "drawnRed": 44,
            "reportedRed": 39,
            "inferredRed": 50,
            "playerTrialScore": -6,
            "oppTrialScore": 0,
            "playerTotalScore": -89,
            "oppTotalScore": -369,
            "waitTime": 5792.512209648675,
            "responseTime": 1642207383582,
            "catchQuestion": "How many <b class=\"r\">red<\/b> marbles did your opponent report drawing? ",
            "catchKey": -1,
            "catchResponse": -1,
            "catchTime": 1642207383583,
            "trialTime": 0
        },
        {
            "exptPart": "trial",
            "trialNumber": 76,
            "roleCurrent": "sender",
            "marblesSampled": 100,
            "probRed": 0.5,
            "lambda": 5,
            "drawnRed": 35,
            "reportedRed": 35,
            "inferredRed": 42,
            "playerTrialScore": 0,
            "oppTrialScore": -7,
            "playerTotalScore": -89,
            "oppTotalScore": -376,
            "waitTime": 2201.1498182085456,
            "responseTime": 1642207401702,
            "catchQuestion": "How many <b class=\"r\">red<\/b> marbles did your opponent report drawing? ",
            "catchKey": -1,
            "catchResponse": -1,
            "catchTime": 1642207383583,
            "trialTime": 0
        },
        {
            "exptPart": "trial",
            "trialNumber": 77,
            "roleCurrent": "receiver",
            "marblesSampled": 100,
            "probRed": 0.5,
            "lambda": 5,
            "drawnRed": 52,
            "reportedRed": 47,
            "inferredRed": 50,
            "playerTrialScore": -2,
            "oppTrialScore": 2,
            "playerTotalScore": -91,
            "oppTotalScore": -374,
            "waitTime": 6652.90796188255,
            "responseTime": 1642207409810,
            "catchQuestion": "How many <b class=\"r\">red<\/b> marbles did your opponent report drawing? ",
            "catchKey": -1,
            "catchResponse": -1,
            "catchTime": 1642207383583,
            "trialTime": 0
        },
        {
            "exptPart": "trial",
            "trialNumber": 78,
            "roleCurrent": "sender",
            "marblesSampled": 100,
            "probRed": 0.5,
            "lambda": 5,
            "drawnRed": 52,
            "reportedRed": 52,
            "inferredRed": 60,
            "playerTrialScore": 0,
            "oppTrialScore": -8,
            "playerTotalScore": -91,
            "oppTotalScore": -382,
            "waitTime": 2087.9277818476016,
            "responseTime": 1642207415736,
            "catchQuestion": "How many <b class=\"r\">red<\/b> marbles did your opponent report drawing? ",
            "catchKey": -1,
            "catchResponse": -1,
            "catchTime": 1642207383583,
            "trialTime": 0
        },
        {
            "exptPart": "trial",
            "trialNumber": 79,
            "roleCurrent": "receiver",
            "marblesSampled": 100,
            "probRed": 0.5,
            "lambda": 5,
            "drawnRed": 50,
            "reportedRed": 46,
            "inferredRed": 50,
            "playerTrialScore": 0,
            "oppTrialScore": 0,
            "playerTotalScore": -91,
            "oppTotalScore": -382,
            "waitTime": 7119.426995526634,
            "responseTime": 1642207424079,
            "catchQuestion": "How many <b class=\"r\">red<\/b> marbles did your opponent report drawing? ",
            "catchKey": -1,
            "catchResponse": -1,
            "catchTime": 1642207383583,
            "trialTime": 0
        },
        {
            "exptPart": "trial",
            "trialNumber": 80,
            "roleCurrent": "sender",
            "marblesSampled": 100,
            "probRed": 0.5,
            "lambda": 5,
            "drawnRed": 64,
            "reportedRed": 64,
            "inferredRed": 74,
            "playerTrialScore": 0,
            "oppTrialScore": -10,
            "playerTotalScore": -91,
            "oppTotalScore": -392,
            "waitTime": 2144.047800251563,
            "responseTime": 1642207435533,
            "catchQuestion": "How many <b class=\"r\">red<\/b> marbles did your opponent report drawing? ",
            "catchKey": -1,
            "catchResponse": -1,
            "catchTime": 1642207435534,
            "trialTime": 0
        },
        {
            "exptPart": "trial",
            "trialNumber": 81,
            "roleCurrent": "receiver",
            "marblesSampled": 100,
            "probRed": 0.5,
            "lambda": 5,
            "drawnRed": 26,
            "reportedRed": 22,
            "inferredRed": 50,
            "playerTrialScore": -24,
            "oppTrialScore": 0,
            "playerTotalScore": -115,
            "oppTotalScore": -392,
            "waitTime": 5448.018030716545,
            "responseTime": 1642207444654,
            "catchQuestion": "How many <b class=\"r\">red<\/b> marbles did your opponent report drawing? ",
            "catchKey": -1,
            "catchResponse": -1,
            "catchTime": 1642207435534,
            "trialTime": 0
        },
        {
            "exptPart": "trial",
            "trialNumber": 82,
            "roleCurrent": "sender",
            "marblesSampled": 100,
            "probRed": 0.5,
            "lambda": 5,
            "drawnRed": 34,
            "reportedRed": 34,
            "inferredRed": 39,
            "playerTrialScore": 0,
            "oppTrialScore": -5,
            "playerTotalScore": -115,
            "oppTotalScore": -397,
            "waitTime": 2291.1184256565152,
            "responseTime": 1642207457844,
            "catchQuestion": "How many <b class=\"r\">red<\/b> marbles did your opponent report drawing? ",
            "catchKey": -1,
            "catchResponse": -1,
            "catchTime": 1642207435534,
            "trialTime": 0
        },
        {
            "exptPart": "trial",
            "trialNumber": 83,
            "roleCurrent": "receiver",
            "marblesSampled": 100,
            "probRed": 0.5,
            "lambda": 5,
            "drawnRed": 37,
            "reportedRed": 26,
            "inferredRed": 50,
            "playerTrialScore": -13,
            "oppTrialScore": 0,
            "playerTotalScore": -128,
            "oppTotalScore": -397,
            "waitTime": 5273.083727009534,
            "responseTime": 1642207464629,
            "catchQuestion": "How many <b class=\"r\">red<\/b> marbles did your opponent report drawing? ",
            "catchKey": -1,
            "catchResponse": -1,
            "catchTime": 1642207435534,
            "trialTime": 0
        },
        {
            "exptPart": "trial",
            "trialNumber": 84,
            "roleCurrent": "sender",
            "marblesSampled": 100,
            "probRed": 0.5,
            "lambda": 5,
            "drawnRed": 53,
            "reportedRed": 53,
            "inferredRed": 56,
            "playerTrialScore": 0,
            "oppTrialScore": -3,
            "playerTotalScore": -128,
            "oppTotalScore": -400,
            "waitTime": 3165.3719882308187,
            "responseTime": 1642207477654,
            "catchQuestion": "How many <b class=\"r\">red<\/b> marbles did your opponent report drawing? ",
            "catchKey": -1,
            "catchResponse": -1,
            "catchTime": 1642207435534,
            "trialTime": 0
        },
        {
            "exptPart": "trial",
            "trialNumber": 85,
            "roleCurrent": "receiver",
            "marblesSampled": 100,
            "probRed": 0.5,
            "lambda": 5,
            "drawnRed": 82,
            "reportedRed": 78,
            "inferredRed": 50,
            "playerTrialScore": -32,
            "oppTrialScore": 32,
            "playerTotalScore": -160,
            "oppTotalScore": -368,
            "waitTime": 6077.545387681597,
            "responseTime": 1642207488854,
            "catchQuestion": "How many <b class=\"r\">red<\/b> marbles did your opponent report drawing? ",
            "catchKey": -1,
            "catchResponse": -1,
            "catchTime": 1642207488855,
            "trialTime": 0
        },
        {
            "exptPart": "trial",
            "trialNumber": 86,
            "roleCurrent": "sender",
            "marblesSampled": 100,
            "probRed": 0.5,
            "lambda": 5,
            "drawnRed": 73,
            "reportedRed": 73,
            "inferredRed": 77,
            "playerTrialScore": 0,
            "oppTrialScore": -4,
            "playerTotalScore": -160,
            "oppTotalScore": -372,
            "waitTime": 2597.4469953155894,
            "responseTime": 1642207499563,
            "catchQuestion": "How many <b class=\"r\">red<\/b> marbles did you actually draw (before any changes)? ",
            "catchKey": 73,
            "catchResponse": 73,
            "catchTime": 1642207499563,
            "trialTime": 0
        },
        {
            "exptPart": "trial",
            "trialNumber": 87,
            "roleCurrent": "receiver",
            "marblesSampled": 100,
            "probRed": 0.5,
            "lambda": 5,
            "drawnRed": 62,
            "reportedRed": 59,
            "inferredRed": 50,
            "playerTrialScore": -12,
            "oppTrialScore": 12,
            "playerTotalScore": -172,
            "oppTotalScore": -360,
            "waitTime": 6756.186911551026,
            "responseTime": 1642207512119,
            "catchQuestion": "How many <b class=\"r\">red<\/b> marbles did you actually draw (before any changes)? ",
            "catchKey": -1,
            "catchResponse": -1,
            "catchTime": 1642207499563,
            "trialTime": 0
        },
        {
            "exptPart": "trial",
            "trialNumber": 88,
            "roleCurrent": "sender",
            "marblesSampled": 100,
            "probRed": 0.5,
            "lambda": 5,
            "drawnRed": 52,
            "reportedRed": 52,
            "inferredRed": 59,
            "playerTrialScore": 0,
            "oppTrialScore": -7,
            "playerTotalScore": -172,
            "oppTotalScore": -367,
            "waitTime": 2200.5571503946085,
            "responseTime": 1642207518330,
            "catchQuestion": "How many <b class=\"r\">red<\/b> marbles did you actually draw (before any changes)? ",
            "catchKey": -1,
            "catchResponse": -1,
            "catchTime": 1642207499563,
            "trialTime": 0
        },
        {
            "exptPart": "trial",
            "trialNumber": 89,
            "roleCurrent": "receiver",
            "marblesSampled": 100,
            "probRed": 0.5,
            "lambda": 5,
            "drawnRed": 48,
            "reportedRed": 43,
            "inferredRed": 50,
            "playerTrialScore": -2,
            "oppTrialScore": 0,
            "playerTotalScore": -174,
            "oppTotalScore": -367,
            "waitTime": 5276.60212282564,
            "responseTime": 1642207525446,
            "catchQuestion": "How many <b class=\"r\">red<\/b> marbles did you actually draw (before any changes)? ",
            "catchKey": -1,
            "catchResponse": -1,
            "catchTime": 1642207499563,
            "trialTime": 0
        },
        {
            "exptPart": "trial",
            "trialNumber": 90,
            "roleCurrent": "sender",
            "marblesSampled": 100,
            "probRed": 0.5,
            "lambda": 5,
            "drawnRed": 40,
            "reportedRed": 40,
            "inferredRed": 46,
            "playerTrialScore": 0,
            "oppTrialScore": -6,
            "playerTotalScore": -174,
            "oppTotalScore": -373,
            "waitTime": 2193.78446077379,
            "responseTime": 1642207531463,
            "catchQuestion": "How many <b class=\"r\">red<\/b> marbles did you actually draw (before any changes)? ",
            "catchKey": 40,
            "catchResponse": 63,
            "catchTime": 1642207531463,
            "trialTime": 0
        },
        {
            "exptPart": "trial",
            "trialNumber": 91,
            "roleCurrent": "receiver",
            "marblesSampled": 100,
            "probRed": 0.5,
            "lambda": 5,
            "drawnRed": 38,
            "reportedRed": 31,
            "inferredRed": 50,
            "playerTrialScore": -12,
            "oppTrialScore": 0,
            "playerTotalScore": -186,
            "oppTotalScore": -373,
            "waitTime": 5158.78691795462,
            "responseTime": 1642207546265,
            "catchQuestion": "How many <b class=\"r\">red<\/b> marbles did your opponent report drawing? ",
            "catchKey": 31,
            "catchResponse": 67,
            "catchTime": 1642207546265,
            "trialTime": 0
        },
        {
            "exptPart": "trial",
            "trialNumber": 92,
            "roleCurrent": "sender",
            "marblesSampled": 100,
            "probRed": 0.5,
            "lambda": 5,
            "drawnRed": 67,
            "reportedRed": 16,
            "inferredRed": 23,
            "playerTrialScore": 44,
            "oppTrialScore": -44,
            "playerTotalScore": -142,
            "oppTotalScore": -417,
            "waitTime": 2389.4406698207395,
            "responseTime": 1642207583046,
            "catchQuestion": "How many <b class=\"r\">red<\/b> marbles did your opponent report drawing? ",
            "catchKey": -1,
            "catchResponse": -1,
            "catchTime": 1642207546265,
            "trialTime": 0
        },
        {
            "exptPart": "trial",
            "trialNumber": 93,
            "roleCurrent": "receiver",
            "marblesSampled": 100,
            "probRed": 0.5,
            "lambda": 5,
            "drawnRed": 46,
            "reportedRed": 45,
            "inferredRed": 67,
            "playerTrialScore": -21,
            "oppTrialScore": 0,
            "playerTotalScore": -163,
            "oppTotalScore": -417,
            "waitTime": 5154.9164721218995,
            "responseTime": 1642207591679,
            "catchQuestion": "How many <b class=\"r\">red<\/b> marbles did your opponent report drawing? ",
            "catchKey": -1,
            "catchResponse": -1,
            "catchTime": 1642207546265,
            "trialTime": 0
        },
        {
            "exptPart": "trial",
            "trialNumber": 94,
            "roleCurrent": "sender",
            "marblesSampled": 100,
            "probRed": 0.5,
            "lambda": 5,
            "drawnRed": 35,
            "reportedRed": 17,
            "inferredRed": 21,
            "playerTrialScore": 14,
            "oppTrialScore": -14,
            "playerTotalScore": -149,
            "oppTotalScore": -431,
            "waitTime": 2737.899418597275,
            "responseTime": 1642207608373,
            "catchQuestion": "How many <b class=\"r\">red<\/b> marbles did your opponent report drawing? ",
            "catchKey": -1,
            "catchResponse": -1,
            "catchTime": 1642207546265,
            "trialTime": 0
        },
        {
            "exptPart": "trial",
            "trialNumber": 95,
            "roleCurrent": "receiver",
            "marblesSampled": 100,
            "probRed": 0.5,
            "lambda": 5,
            "drawnRed": 51,
            "reportedRed": 48,
            "inferredRed": 70,
            "playerTrialScore": -19,
            "oppTrialScore": 0,
            "playerTotalScore": -168,
            "oppTotalScore": -431,
            "waitTime": 5726.048740450564,
            "responseTime": 1642207618090,
            "catchQuestion": "How many <b class=\"r\">red<\/b> marbles did your opponent report drawing? ",
            "catchKey": -1,
            "catchResponse": -1,
            "catchTime": 1642207618091,
            "trialTime": 0
        },
        {
            "exptPart": "trial",
            "trialNumber": 96,
            "roleCurrent": "sender",
            "marblesSampled": 100,
            "probRed": 0.5,
            "lambda": 5,
            "drawnRed": 56,
            "reportedRed": 36,
            "inferredRed": 41,
            "playerTrialScore": 15,
            "oppTrialScore": -15,
            "playerTotalScore": -153,
            "oppTotalScore": -446,
            "waitTime": 2633.125380870879,
            "responseTime": 1642207637034,
            "catchQuestion": "How many <b class=\"r\">red<\/b> marbles did your opponent report drawing? ",
            "catchKey": -1,
            "catchResponse": -1,
            "catchTime": 1642207618091,
            "trialTime": 0
        },
        {
            "exptPart": "trial",
            "trialNumber": 97,
            "roleCurrent": "receiver",
            "marblesSampled": 100,
            "probRed": 0.5,
            "lambda": 5,
            "drawnRed": 26,
            "reportedRed": 19,
            "inferredRed": 46,
            "playerTrialScore": -20,
            "oppTrialScore": 0,
            "playerTotalScore": -173,
            "oppTotalScore": -446,
            "waitTime": 6440.058651008274,
            "responseTime": 1642207648428,
            "catchQuestion": "How many <b class=\"r\">red<\/b> marbles did your opponent report drawing? ",
            "catchKey": -1,
            "catchResponse": -1,
            "catchTime": 1642207618091,
            "trialTime": 0
        },
        {
            "exptPart": "trial",
            "trialNumber": 98,
            "roleCurrent": "sender",
            "marblesSampled": 100,
            "probRed": 0.5,
            "lambda": 5,
            "drawnRed": 30,
            "reportedRed": 16,
            "inferredRed": 21,
            "playerTrialScore": 9,
            "oppTrialScore": -9,
            "playerTotalScore": -164,
            "oppTotalScore": -455,
            "waitTime": 2069.156132789267,
            "responseTime": 1642207677237,
            "catchQuestion": "How many <b class=\"r\">red<\/b> marbles did your opponent report drawing? ",
            "catchKey": -1,
            "catchResponse": -1,
            "catchTime": 1642207618091,
            "trialTime": 0
        },
        {
            "exptPart": "trial",
            "trialNumber": 99,
            "roleCurrent": "receiver",
            "marblesSampled": 100,
            "probRed": 0.5,
            "lambda": 5,
            "drawnRed": 42,
            "reportedRed": 39,
            "inferredRed": 56,
            "playerTrialScore": -14,
            "oppTrialScore": 0,
            "playerTotalScore": -178,
            "oppTotalScore": -455,
            "waitTime": 5313.290160081815,
            "responseTime": 1642207685875,
            "catchQuestion": "How many <b class=\"r\">red<\/b> marbles did your opponent report drawing? ",
            "catchKey": -1,
            "catchResponse": -1,
            "catchTime": 1642207618091,
            "trialTime": 0
        },
        {
            "exptPart": "trial",
            "trialNumber": 100,
            "roleCurrent": "sender",
            "marblesSampled": 100,
            "probRed": 0.5,
            "lambda": 5,
            "drawnRed": 24,
            "reportedRed": 0,
            "inferredRed": 3,
            "playerTrialScore": 21,
            "oppTrialScore": -21,
            "playerTotalScore": -157,
            "oppTotalScore": -476,
            "waitTime": 2738.749571401384,
            "responseTime": 1642207707094,
            "catchQuestion": "How many <b class=\"r\">red<\/b> marbles did your opponent report drawing? ",
            "catchKey": -1,
            "catchResponse": -1,
            "catchTime": 1642207707094,
            "trialTime": 0
        }
    ]
}