{
    "client": {
        "type": "sona",
        "experiment_id": 2228,
        "credit_token": "b315147ae43241ea9c65086cb510cfb7",
        "survey_code": "40637",
        "sid": "sona-40637",
        "window": {
            "width": 1500,
            "height": 881
        },
        "screen": {
            "width": 1500,
            "height": 1000
        },
        "userAgent": "Mozilla\/5.0 (Windows NT 10.0; Win64; x64) AppleWebKit\/537.36 (KHTML, like Gecko) Chrome\/96.0.4664.110 Safari\/537.36",
        "score": 0,
        "bonus": 0
    },
    "expt": {
        "saveURL": "submit.simple.php",
        "trials": 100,
        "practiceTrials": 2,
        "marblesSampled": 100,
        "probRed": 0.5,
        "lambdaAI": 5,
        "roleFirst": "sender",
        "roles": [
            "sender",
            "receiver"
        ],
        "cost": "unif",
        "goal": "over",
        "catchTrials": [
            53,
            27,
            44,
            81,
            92,
            83,
            91,
            98,
            46,
            13
        ],
        "scoreTotal": {
            "player": 445,
            "opp": -640
        },
        "sona": {
            "experiment_id": 2228,
            "credit_token": "b315147ae43241ea9c65086cb510cfb7"
        },
        "pilot": false,
        "debug": false
    },
    "trials": [
        {
            "exptPart": "practice",
            "trialNumber": 1,
            "roleCurrent": "sender",
            "marblesSampled": 100,
            "probRed": 0.5,
            "lambda": 5,
            "drawnRed": 92,
            "reportedRed": 89,
            "inferredRed": 84,
            "playerTrialScore": 0,
            "oppTrialScore": -8,
            "playerTotalScore": 0,
            "oppTotalScore": -8,
            "waitTime": 3179.3485348570352,
            "responseTime": 1642445337030,
            "catchQuestion": "How many <b class=\"r\">red<\/b> marbles did you actually draw (before any changes)? ",
            "catchKey": 92,
            "catchResponse": 92,
            "catchTime": 1642445337031,
            "trialTime": 0
        },
        {
            "exptPart": "practice",
            "trialNumber": 2,
            "roleCurrent": "receiver",
            "marblesSampled": 100,
            "probRed": 0.5,
            "lambda": 5,
            "drawnRed": 71,
            "reportedRed": 76,
            "inferredRed": 75,
            "playerTrialScore": -4,
            "oppTrialScore": 4,
            "playerTotalScore": -4,
            "oppTotalScore": -4,
            "waitTime": 6718.614550680242,
            "responseTime": 1642445386338,
            "catchQuestion": "How many <b class=\"r\">red<\/b> marbles did your opponent report drawing? ",
            "catchKey": 76,
            "catchResponse": 76,
            "catchTime": 1642445386338,
            "trialTime": 0
        },
        {
            "exptPart": "trial",
            "trialNumber": 1,
            "roleCurrent": "sender",
            "marblesSampled": 100,
            "probRed": 0.5,
            "lambda": 5,
            "drawnRed": 51,
            "reportedRed": 56,
            "inferredRed": 50,
            "playerTrialScore": 0,
            "oppTrialScore": -1,
            "playerTotalScore": 0,
            "oppTotalScore": -1,
            "waitTime": 3155.393044722767,
            "responseTime": 1642445441973,
            "catchQuestion": "How many <b class=\"r\">red<\/b> marbles did your opponent report drawing? ",
            "catchKey": -1,
            "catchResponse": -1,
            "catchTime": 1642445386338,
            "trialTime": 0
        },
        {
            "exptPart": "trial",
            "trialNumber": 2,
            "roleCurrent": "receiver",
            "marblesSampled": 100,
            "probRed": 0.5,
            "lambda": 5,
            "drawnRed": 70,
            "reportedRed": 73,
            "inferredRed": 67,
            "playerTrialScore": -3,
            "oppTrialScore": 0,
            "playerTotalScore": -3,
            "oppTotalScore": -1,
            "waitTime": 6223.238370794758,
            "responseTime": 1642445466456,
            "catchQuestion": "How many <b class=\"r\">red<\/b> marbles did your opponent report drawing? ",
            "catchKey": -1,
            "catchResponse": -1,
            "catchTime": 1642445386338,
            "trialTime": 0
        },
        {
            "exptPart": "trial",
            "trialNumber": 3,
            "roleCurrent": "sender",
            "marblesSampled": 100,
            "probRed": 0.5,
            "lambda": 5,
            "drawnRed": 48,
            "reportedRed": 53,
            "inferredRed": 51,
            "playerTrialScore": 3,
            "oppTrialScore": -3,
            "playerTotalScore": 0,
            "oppTotalScore": -4,
            "waitTime": 3207.524464397722,
            "responseTime": 1642445499137,
            "catchQuestion": "How many <b class=\"r\">red<\/b> marbles did your opponent report drawing? ",
            "catchKey": -1,
            "catchResponse": -1,
            "catchTime": 1642445386338,
            "trialTime": 0
        },
        {
            "exptPart": "trial",
            "trialNumber": 4,
            "roleCurrent": "receiver",
            "marblesSampled": 100,
            "probRed": 0.5,
            "lambda": 5,
            "drawnRed": 43,
            "reportedRed": 48,
            "inferredRed": 46,
            "playerTrialScore": -3,
            "oppTrialScore": 3,
            "playerTotalScore": -3,
            "oppTotalScore": -1,
            "waitTime": 5182.714548833219,
            "responseTime": 1642445520717,
            "catchQuestion": "How many <b class=\"r\">red<\/b> marbles did your opponent report drawing? ",
            "catchKey": -1,
            "catchResponse": -1,
            "catchTime": 1642445386338,
            "trialTime": 0
        },
        {
            "exptPart": "trial",
            "trialNumber": 5,
            "roleCurrent": "sender",
            "marblesSampled": 100,
            "probRed": 0.5,
            "lambda": 5,
            "drawnRed": 24,
            "reportedRed": 29,
            "inferredRed": 25,
            "playerTrialScore": 1,
            "oppTrialScore": -1,
            "playerTotalScore": -2,
            "oppTotalScore": -2,
            "waitTime": 3158.0181019406423,
            "responseTime": 1642445548114,
            "catchQuestion": "How many <b class=\"r\">red<\/b> marbles did your opponent report drawing? ",
            "catchKey": -1,
            "catchResponse": -1,
            "catchTime": 1642445548115,
            "trialTime": 0
        },
        {
            "exptPart": "trial",
            "trialNumber": 6,
            "roleCurrent": "receiver",
            "marblesSampled": 100,
            "probRed": 0.5,
            "lambda": 5,
            "drawnRed": 72,
            "reportedRed": 74,
            "inferredRed": 69,
            "playerTrialScore": -3,
            "oppTrialScore": 0,
            "playerTotalScore": -5,
            "oppTotalScore": -2,
            "waitTime": 5802.6069625447835,
            "responseTime": 1642445570558,
            "catchQuestion": "How many <b class=\"r\">red<\/b> marbles did your opponent report drawing? ",
            "catchKey": -1,
            "catchResponse": -1,
            "catchTime": 1642445548115,
            "trialTime": 0
        },
        {
            "exptPart": "trial",
            "trialNumber": 7,
            "roleCurrent": "sender",
            "marblesSampled": 100,
            "probRed": 0.5,
            "lambda": 5,
            "drawnRed": 72,
            "reportedRed": 73,
            "inferredRed": 66,
            "playerTrialScore": 0,
            "oppTrialScore": -6,
            "playerTotalScore": -5,
            "oppTotalScore": -8,
            "waitTime": 2503.3764413715553,
            "responseTime": 1642445619158,
            "catchQuestion": "How many <b class=\"r\">red<\/b> marbles did your opponent report drawing? ",
            "catchKey": -1,
            "catchResponse": -1,
            "catchTime": 1642445548115,
            "trialTime": 0
        },
        {
            "exptPart": "trial",
            "trialNumber": 8,
            "roleCurrent": "receiver",
            "marblesSampled": 100,
            "probRed": 0.5,
            "lambda": 5,
            "drawnRed": 75,
            "reportedRed": 81,
            "inferredRed": 78,
            "playerTrialScore": -3,
            "oppTrialScore": 3,
            "playerTotalScore": -8,
            "oppTotalScore": -5,
            "waitTime": 6104.820901320387,
            "responseTime": 1642445631376,
            "catchQuestion": "How many <b class=\"r\">red<\/b> marbles did your opponent report drawing? ",
            "catchKey": -1,
            "catchResponse": -1,
            "catchTime": 1642445548115,
            "trialTime": 0
        },
        {
            "exptPart": "trial",
            "trialNumber": 9,
            "roleCurrent": "sender",
            "marblesSampled": 100,
            "probRed": 0.5,
            "lambda": 5,
            "drawnRed": 77,
            "reportedRed": 80,
            "inferredRed": 75,
            "playerTrialScore": 0,
            "oppTrialScore": -2,
            "playerTotalScore": -8,
            "oppTotalScore": -7,
            "waitTime": 2387.563996682844,
            "responseTime": 1642445667592,
            "catchQuestion": "How many <b class=\"r\">red<\/b> marbles did your opponent report drawing? ",
            "catchKey": -1,
            "catchResponse": -1,
            "catchTime": 1642445548115,
            "trialTime": 0
        },
        {
            "exptPart": "trial",
            "trialNumber": 10,
            "roleCurrent": "receiver",
            "marblesSampled": 100,
            "probRed": 0.5,
            "lambda": 5,
            "drawnRed": 71,
            "reportedRed": 75,
            "inferredRed": 70,
            "playerTrialScore": -1,
            "oppTrialScore": 0,
            "playerTotalScore": -9,
            "oppTotalScore": -7,
            "waitTime": 7153.288648166132,
            "responseTime": 1642445688604,
            "catchQuestion": "How many <b class=\"r\">red<\/b> marbles did your opponent report drawing? ",
            "catchKey": -1,
            "catchResponse": -1,
            "catchTime": 1642445688604,
            "trialTime": 0
        },
        {
            "exptPart": "trial",
            "trialNumber": 11,
            "roleCurrent": "sender",
            "marblesSampled": 100,
            "probRed": 0.5,
            "lambda": 5,
            "drawnRed": 43,
            "reportedRed": 49,
            "inferredRed": 45,
            "playerTrialScore": 2,
            "oppTrialScore": -2,
            "playerTotalScore": -7,
            "oppTotalScore": -9,
            "waitTime": 2945.054194647374,
            "responseTime": 1642445762975,
            "catchQuestion": "How many <b class=\"r\">red<\/b> marbles did your opponent report drawing? ",
            "catchKey": -1,
            "catchResponse": -1,
            "catchTime": 1642445688604,
            "trialTime": 0
        },
        {
            "exptPart": "trial",
            "trialNumber": 12,
            "roleCurrent": "receiver",
            "marblesSampled": 100,
            "probRed": 0.5,
            "lambda": 5,
            "drawnRed": 67,
            "reportedRed": 70,
            "inferredRed": 62,
            "playerTrialScore": -5,
            "oppTrialScore": 0,
            "playerTotalScore": -12,
            "oppTotalScore": -9,
            "waitTime": 6253.162657316794,
            "responseTime": 1642445778153,
            "catchQuestion": "How many <b class=\"r\">red<\/b> marbles did your opponent report drawing? ",
            "catchKey": -1,
            "catchResponse": -1,
            "catchTime": 1642445688604,
            "trialTime": 0
        },
        {
            "exptPart": "trial",
            "trialNumber": 13,
            "roleCurrent": "sender",
            "marblesSampled": 100,
            "probRed": 0.5,
            "lambda": 5,
            "drawnRed": 46,
            "reportedRed": 57,
            "inferredRed": 51,
            "playerTrialScore": 5,
            "oppTrialScore": -5,
            "playerTotalScore": -7,
            "oppTotalScore": -14,
            "waitTime": 2298.82753104501,
            "responseTime": 1642445800280,
            "catchQuestion": "How many <b class=\"r\">red<\/b> marbles did your opponent report drawing? ",
            "catchKey": -1,
            "catchResponse": -1,
            "catchTime": 1642445688604,
            "trialTime": 0
        },
        {
            "exptPart": "trial",
            "trialNumber": 14,
            "roleCurrent": "receiver",
            "marblesSampled": 100,
            "probRed": 0.5,
            "lambda": 5,
            "drawnRed": 63,
            "reportedRed": 67,
            "inferredRed": 63,
            "playerTrialScore": 0,
            "oppTrialScore": 0,
            "playerTotalScore": -7,
            "oppTotalScore": -14,
            "waitTime": 7438.800472463238,
            "responseTime": 1642445814680,
            "catchQuestion": "How many <b class=\"r\">red<\/b> marbles did your opponent report drawing? ",
            "catchKey": 67,
            "catchResponse": 67,
            "catchTime": 1642445814680,
            "trialTime": 0
        },
        {
            "exptPart": "trial",
            "trialNumber": 15,
            "roleCurrent": "sender",
            "marblesSampled": 100,
            "probRed": 0.5,
            "lambda": 5,
            "drawnRed": 52,
            "reportedRed": 61,
            "inferredRed": 59,
            "playerTrialScore": 7,
            "oppTrialScore": -7,
            "playerTotalScore": 0,
            "oppTotalScore": -21,
            "waitTime": 3100.0226103093264,
            "responseTime": 1642445847583,
            "catchQuestion": "How many <b class=\"r\">red<\/b> marbles did your opponent report drawing? ",
            "catchKey": -1,
            "catchResponse": -1,
            "catchTime": 1642445847584,
            "trialTime": 0
        },
        {
            "exptPart": "trial",
            "trialNumber": 16,
            "roleCurrent": "receiver",
            "marblesSampled": 100,
            "probRed": 0.5,
            "lambda": 5,
            "drawnRed": 51,
            "reportedRed": 61,
            "inferredRed": 53,
            "playerTrialScore": -2,
            "oppTrialScore": 2,
            "playerTotalScore": -2,
            "oppTotalScore": -19,
            "waitTime": 7078.6957857940315,
            "responseTime": 1642445876306,
            "catchQuestion": "How many <b class=\"r\">red<\/b> marbles did your opponent report drawing? ",
            "catchKey": -1,
            "catchResponse": -1,
            "catchTime": 1642445847584,
            "trialTime": 0
        },
        {
            "exptPart": "trial",
            "trialNumber": 17,
            "roleCurrent": "sender",
            "marblesSampled": 100,
            "probRed": 0.5,
            "lambda": 5,
            "drawnRed": 47,
            "reportedRed": 58,
            "inferredRed": 51,
            "playerTrialScore": 4,
            "oppTrialScore": -4,
            "playerTotalScore": 2,
            "oppTotalScore": -23,
            "waitTime": 2446.7655049162345,
            "responseTime": 1642445898577,
            "catchQuestion": "How many <b class=\"r\">red<\/b> marbles did your opponent report drawing? ",
            "catchKey": -1,
            "catchResponse": -1,
            "catchTime": 1642445847584,
            "trialTime": 0
        },
        {
            "exptPart": "trial",
            "trialNumber": 18,
            "roleCurrent": "receiver",
            "marblesSampled": 100,
            "probRed": 0.5,
            "lambda": 5,
            "drawnRed": 47,
            "reportedRed": 51,
            "inferredRed": 44,
            "playerTrialScore": -3,
            "oppTrialScore": 0,
            "playerTotalScore": -1,
            "oppTotalScore": -23,
            "waitTime": 6200.161119605475,
            "responseTime": 1642445910296,
            "catchQuestion": "How many <b class=\"r\">red<\/b> marbles did your opponent report drawing? ",
            "catchKey": -1,
            "catchResponse": -1,
            "catchTime": 1642445847584,
            "trialTime": 0
        },
        {
            "exptPart": "trial",
            "trialNumber": 19,
            "roleCurrent": "sender",
            "marblesSampled": 100,
            "probRed": 0.5,
            "lambda": 5,
            "drawnRed": 75,
            "reportedRed": 84,
            "inferredRed": 81,
            "playerTrialScore": 6,
            "oppTrialScore": -6,
            "playerTotalScore": 5,
            "oppTotalScore": -29,
            "waitTime": 2652.221571484788,
            "responseTime": 1642445933724,
            "catchQuestion": "How many <b class=\"r\">red<\/b> marbles did your opponent report drawing? ",
            "catchKey": -1,
            "catchResponse": -1,
            "catchTime": 1642445847584,
            "trialTime": 0
        },
        {
            "exptPart": "trial",
            "trialNumber": 20,
            "roleCurrent": "receiver",
            "marblesSampled": 100,
            "probRed": 0.5,
            "lambda": 5,
            "drawnRed": 80,
            "reportedRed": 86,
            "inferredRed": 79,
            "playerTrialScore": -1,
            "oppTrialScore": 0,
            "playerTotalScore": 4,
            "oppTotalScore": -29,
            "waitTime": 7172.571467460424,
            "responseTime": 1642445949723,
            "catchQuestion": "How many <b class=\"r\">red<\/b> marbles did your opponent report drawing? ",
            "catchKey": -1,
            "catchResponse": -1,
            "catchTime": 1642445949723,
            "trialTime": 0
        },
        {
            "exptPart": "trial",
            "trialNumber": 21,
            "roleCurrent": "sender",
            "marblesSampled": 100,
            "probRed": 0.5,
            "lambda": 5,
            "drawnRed": 11,
            "reportedRed": 59,
            "inferredRed": 54,
            "playerTrialScore": 43,
            "oppTrialScore": -43,
            "playerTotalScore": 47,
            "oppTotalScore": -72,
            "waitTime": 2668.542780725067,
            "responseTime": 1642446035515,
            "catchQuestion": "How many <b class=\"r\">red<\/b> marbles did your opponent report drawing? ",
            "catchKey": -1,
            "catchResponse": -1,
            "catchTime": 1642445949723,
            "trialTime": 0
        },
        {
            "exptPart": "trial",
            "trialNumber": 22,
            "roleCurrent": "receiver",
            "marblesSampled": 100,
            "probRed": 0.5,
            "lambda": 5,
            "drawnRed": 29,
            "reportedRed": 34,
            "inferredRed": 23,
            "playerTrialScore": -6,
            "oppTrialScore": 0,
            "playerTotalScore": 41,
            "oppTotalScore": -72,
            "waitTime": 5670.209812140936,
            "responseTime": 1642446049380,
            "catchQuestion": "How many <b class=\"r\">red<\/b> marbles did your opponent report drawing? ",
            "catchKey": -1,
            "catchResponse": -1,
            "catchTime": 1642445949723,
            "trialTime": 0
        },
        {
            "exptPart": "trial",
            "trialNumber": 23,
            "roleCurrent": "sender",
            "marblesSampled": 100,
            "probRed": 0.5,
            "lambda": 5,
            "drawnRed": 66,
            "reportedRed": 72,
            "inferredRed": 66,
            "playerTrialScore": 0,
            "oppTrialScore": 0,
            "playerTotalScore": 41,
            "oppTotalScore": -72,
            "waitTime": 2178.0970639216894,
            "responseTime": 1642446070269,
            "catchQuestion": "How many <b class=\"r\">red<\/b> marbles did your opponent report drawing? ",
            "catchKey": -1,
            "catchResponse": -1,
            "catchTime": 1642445949723,
            "trialTime": 0
        },
        {
            "exptPart": "trial",
            "trialNumber": 24,
            "roleCurrent": "receiver",
            "marblesSampled": 100,
            "probRed": 0.5,
            "lambda": 5,
            "drawnRed": 22,
            "reportedRed": 27,
            "inferredRed": 21,
            "playerTrialScore": -1,
            "oppTrialScore": 0,
            "playerTotalScore": 40,
            "oppTotalScore": -72,
            "waitTime": 6072.704577488281,
            "responseTime": 1642446084757,
            "catchQuestion": "How many <b class=\"r\">red<\/b> marbles did your opponent report drawing? ",
            "catchKey": -1,
            "catchResponse": -1,
            "catchTime": 1642445949723,
            "trialTime": 0
        },
        {
            "exptPart": "trial",
            "trialNumber": 25,
            "roleCurrent": "sender",
            "marblesSampled": 100,
            "probRed": 0.5,
            "lambda": 5,
            "drawnRed": 45,
            "reportedRed": 58,
            "inferredRed": 55,
            "playerTrialScore": 10,
            "oppTrialScore": -10,
            "playerTotalScore": 50,
            "oppTotalScore": -82,
            "waitTime": 2345.8150152107305,
            "responseTime": 1642446115256,
            "catchQuestion": "How many <b class=\"r\">red<\/b> marbles did your opponent report drawing? ",
            "catchKey": -1,
            "catchResponse": -1,
            "catchTime": 1642446115256,
            "trialTime": 0
        },
        {
            "exptPart": "trial",
            "trialNumber": 26,
            "roleCurrent": "receiver",
            "marblesSampled": 100,
            "probRed": 0.5,
            "lambda": 5,
            "drawnRed": 50,
            "reportedRed": 53,
            "inferredRed": 42,
            "playerTrialScore": -8,
            "oppTrialScore": 0,
            "playerTotalScore": 42,
            "oppTotalScore": -82,
            "waitTime": 5965.426825840499,
            "responseTime": 1642446137579,
            "catchQuestion": "How many <b class=\"r\">red<\/b> marbles did your opponent report drawing? ",
            "catchKey": -1,
            "catchResponse": -1,
            "catchTime": 1642446115256,
            "trialTime": 0
        },
        {
            "exptPart": "trial",
            "trialNumber": 27,
            "roleCurrent": "sender",
            "marblesSampled": 100,
            "probRed": 0.5,
            "lambda": 5,
            "drawnRed": 19,
            "reportedRed": 54,
            "inferredRed": 49,
            "playerTrialScore": 30,
            "oppTrialScore": -30,
            "playerTotalScore": 72,
            "oppTotalScore": -112,
            "waitTime": 2123.7695904753195,
            "responseTime": 1642446180664,
            "catchQuestion": "How many <b class=\"r\">red<\/b> marbles did your opponent report drawing? ",
            "catchKey": -1,
            "catchResponse": -1,
            "catchTime": 1642446115256,
            "trialTime": 0
        },
        {
            "exptPart": "trial",
            "trialNumber": 28,
            "roleCurrent": "receiver",
            "marblesSampled": 100,
            "probRed": 0.5,
            "lambda": 5,
            "drawnRed": 66,
            "reportedRed": 69,
            "inferredRed": 55,
            "playerTrialScore": -11,
            "oppTrialScore": 0,
            "playerTotalScore": 61,
            "oppTotalScore": -112,
            "waitTime": 5347.759138508358,
            "responseTime": 1642446197613,
            "catchQuestion": "How many <b class=\"r\">red<\/b> marbles did your opponent report drawing? ",
            "catchKey": 69,
            "catchResponse": 69,
            "catchTime": 1642446197613,
            "trialTime": 0
        },
        {
            "exptPart": "trial",
            "trialNumber": 29,
            "roleCurrent": "sender",
            "marblesSampled": 100,
            "probRed": 0.5,
            "lambda": 5,
            "drawnRed": 21,
            "reportedRed": 57,
            "inferredRed": 52,
            "playerTrialScore": 31,
            "oppTrialScore": -31,
            "playerTotalScore": 92,
            "oppTotalScore": -143,
            "waitTime": 2118.439467737261,
            "responseTime": 1642446255836,
            "catchQuestion": "How many <b class=\"r\">red<\/b> marbles did your opponent report drawing? ",
            "catchKey": -1,
            "catchResponse": -1,
            "catchTime": 1642446197613,
            "trialTime": 0
        },
        {
            "exptPart": "trial",
            "trialNumber": 30,
            "roleCurrent": "receiver",
            "marblesSampled": 100,
            "probRed": 0.5,
            "lambda": 5,
            "drawnRed": 39,
            "reportedRed": 46,
            "inferredRed": 39,
            "playerTrialScore": 0,
            "oppTrialScore": 0,
            "playerTotalScore": 92,
            "oppTotalScore": -143,
            "waitTime": 7419.917955719858,
            "responseTime": 1642446273407,
            "catchQuestion": "How many <b class=\"r\">red<\/b> marbles did your opponent report drawing? ",
            "catchKey": -1,
            "catchResponse": -1,
            "catchTime": 1642446273407,
            "trialTime": 0
        },
        {
            "exptPart": "trial",
            "trialNumber": 31,
            "roleCurrent": "sender",
            "marblesSampled": 100,
            "probRed": 0.5,
            "lambda": 5,
            "drawnRed": 45,
            "reportedRed": 71,
            "inferredRed": 65,
            "playerTrialScore": 20,
            "oppTrialScore": -20,
            "playerTotalScore": 112,
            "oppTotalScore": -163,
            "waitTime": 2193.1328451884133,
            "responseTime": 1642446317317,
            "catchQuestion": "How many <b class=\"r\">red<\/b> marbles did your opponent report drawing? ",
            "catchKey": -1,
            "catchResponse": -1,
            "catchTime": 1642446273407,
            "trialTime": 0
        },
        {
            "exptPart": "trial",
            "trialNumber": 32,
            "roleCurrent": "receiver",
            "marblesSampled": 100,
            "probRed": 0.5,
            "lambda": 5,
            "drawnRed": 43,
            "reportedRed": 49,
            "inferredRed": 44,
            "playerTrialScore": -1,
            "oppTrialScore": 1,
            "playerTotalScore": 111,
            "oppTotalScore": -162,
            "waitTime": 7300.52889697435,
            "responseTime": 1642446331336,
            "catchQuestion": "How many <b class=\"r\">red<\/b> marbles did your opponent report drawing? ",
            "catchKey": -1,
            "catchResponse": -1,
            "catchTime": 1642446273407,
            "trialTime": 0
        },
        {
            "exptPart": "trial",
            "trialNumber": 33,
            "roleCurrent": "sender",
            "marblesSampled": 100,
            "probRed": 0.5,
            "lambda": 5,
            "drawnRed": 59,
            "reportedRed": 77,
            "inferredRed": 74,
            "playerTrialScore": 15,
            "oppTrialScore": -15,
            "playerTotalScore": 126,
            "oppTotalScore": -177,
            "waitTime": 2955.1524881013047,
            "responseTime": 1642446365325,
            "catchQuestion": "How many <b class=\"r\">red<\/b> marbles did your opponent report drawing? ",
            "catchKey": -1,
            "catchResponse": -1,
            "catchTime": 1642446273407,
            "trialTime": 0
        },
        {
            "exptPart": "trial",
            "trialNumber": 34,
            "roleCurrent": "receiver",
            "marblesSampled": 100,
            "probRed": 0.5,
            "lambda": 5,
            "drawnRed": 44,
            "reportedRed": 48,
            "inferredRed": 42,
            "playerTrialScore": -2,
            "oppTrialScore": 0,
            "playerTotalScore": 124,
            "oppTotalScore": -177,
            "waitTime": 7127.207023484017,
            "responseTime": 1642446378229,
            "catchQuestion": "How many <b class=\"r\">red<\/b> marbles did your opponent report drawing? ",
            "catchKey": -1,
            "catchResponse": -1,
            "catchTime": 1642446273407,
            "trialTime": 0
        },
        {
            "exptPart": "trial",
            "trialNumber": 35,
            "roleCurrent": "sender",
            "marblesSampled": 100,
            "probRed": 0.5,
            "lambda": 5,
            "drawnRed": 81,
            "reportedRed": 95,
            "inferredRed": 91,
            "playerTrialScore": 10,
            "oppTrialScore": -10,
            "playerTotalScore": 134,
            "oppTotalScore": -187,
            "waitTime": 3074.958123716307,
            "responseTime": 1642446413203,
            "catchQuestion": "How many <b class=\"r\">red<\/b> marbles did your opponent report drawing? ",
            "catchKey": -1,
            "catchResponse": -1,
            "catchTime": 1642446413203,
            "trialTime": 0
        },
        {
            "exptPart": "trial",
            "trialNumber": 36,
            "roleCurrent": "receiver",
            "marblesSampled": 100,
            "probRed": 0.5,
            "lambda": 5,
            "drawnRed": 52,
            "reportedRed": 56,
            "inferredRed": 47,
            "playerTrialScore": -5,
            "oppTrialScore": 0,
            "playerTotalScore": 129,
            "oppTotalScore": -187,
            "waitTime": 6304.584877956441,
            "responseTime": 1642446440773,
            "catchQuestion": "How many <b class=\"r\">red<\/b> marbles did your opponent report drawing? ",
            "catchKey": -1,
            "catchResponse": -1,
            "catchTime": 1642446413203,
            "trialTime": 0
        },
        {
            "exptPart": "trial",
            "trialNumber": 37,
            "roleCurrent": "sender",
            "marblesSampled": 100,
            "probRed": 0.5,
            "lambda": 5,
            "drawnRed": 40,
            "reportedRed": 68,
            "inferredRed": 66,
            "playerTrialScore": 26,
            "oppTrialScore": -26,
            "playerTotalScore": 155,
            "oppTotalScore": -213,
            "waitTime": 2304.871853740963,
            "responseTime": 1642446484029,
            "catchQuestion": "How many <b class=\"r\">red<\/b> marbles did your opponent report drawing? ",
            "catchKey": -1,
            "catchResponse": -1,
            "catchTime": 1642446413203,
            "trialTime": 0
        },
        {
            "exptPart": "trial",
            "trialNumber": 38,
            "roleCurrent": "receiver",
            "marblesSampled": 100,
            "probRed": 0.5,
            "lambda": 5,
            "drawnRed": 38,
            "reportedRed": 41,
            "inferredRed": 30,
            "playerTrialScore": -8,
            "oppTrialScore": 0,
            "playerTotalScore": 147,
            "oppTotalScore": -213,
            "waitTime": 5214.397859446219,
            "responseTime": 1642446508221,
            "catchQuestion": "How many <b class=\"r\">red<\/b> marbles did your opponent report drawing? ",
            "catchKey": -1,
            "catchResponse": -1,
            "catchTime": 1642446413203,
            "trialTime": 0
        },
        {
            "exptPart": "trial",
            "trialNumber": 39,
            "roleCurrent": "sender",
            "marblesSampled": 100,
            "probRed": 0.5,
            "lambda": 5,
            "drawnRed": 33,
            "reportedRed": 46,
            "inferredRed": 38,
            "playerTrialScore": 5,
            "oppTrialScore": -5,
            "playerTotalScore": 152,
            "oppTotalScore": -218,
            "waitTime": 2377.8239059352973,
            "responseTime": 1642446537343,
            "catchQuestion": "How many <b class=\"r\">red<\/b> marbles did your opponent report drawing? ",
            "catchKey": -1,
            "catchResponse": -1,
            "catchTime": 1642446413203,
            "trialTime": 0
        },
        {
            "exptPart": "trial",
            "trialNumber": 40,
            "roleCurrent": "receiver",
            "marblesSampled": 100,
            "probRed": 0.5,
            "lambda": 5,
            "drawnRed": 67,
            "reportedRed": 70,
            "inferredRed": 55,
            "playerTrialScore": -12,
            "oppTrialScore": 0,
            "playerTotalScore": 140,
            "oppTotalScore": -218,
            "waitTime": 7345.8534276018045,
            "responseTime": 1642446555137,
            "catchQuestion": "How many <b class=\"r\">red<\/b> marbles did your opponent report drawing? ",
            "catchKey": -1,
            "catchResponse": -1,
            "catchTime": 1642446555137,
            "trialTime": 0
        },
        {
            "exptPart": "trial",
            "trialNumber": 41,
            "roleCurrent": "sender",
            "marblesSampled": 100,
            "probRed": 0.5,
            "lambda": 5,
            "drawnRed": 18,
            "reportedRed": 52,
            "inferredRed": 48,
            "playerTrialScore": 30,
            "oppTrialScore": -30,
            "playerTotalScore": 170,
            "oppTotalScore": -248,
            "waitTime": 2181.144382793349,
            "responseTime": 1642446620432,
            "catchQuestion": "How many <b class=\"r\">red<\/b> marbles did your opponent report drawing? ",
            "catchKey": -1,
            "catchResponse": -1,
            "catchTime": 1642446555137,
            "trialTime": 0
        },
        {
            "exptPart": "trial",
            "trialNumber": 42,
            "roleCurrent": "receiver",
            "marblesSampled": 100,
            "probRed": 0.5,
            "lambda": 5,
            "drawnRed": 34,
            "reportedRed": 39,
            "inferredRed": 31,
            "playerTrialScore": -3,
            "oppTrialScore": 0,
            "playerTotalScore": 167,
            "oppTotalScore": -248,
            "waitTime": 5325.79017272265,
            "responseTime": 1642446631927,
            "catchQuestion": "How many <b class=\"r\">red<\/b> marbles did your opponent report drawing? ",
            "catchKey": -1,
            "catchResponse": -1,
            "catchTime": 1642446555137,
            "trialTime": 0
        },
        {
            "exptPart": "trial",
            "trialNumber": 43,
            "roleCurrent": "sender",
            "marblesSampled": 100,
            "probRed": 0.5,
            "lambda": 5,
            "drawnRed": 43,
            "reportedRed": 56,
            "inferredRed": 50,
            "playerTrialScore": 7,
            "oppTrialScore": -7,
            "playerTotalScore": 174,
            "oppTotalScore": -255,
            "waitTime": 3220.8340166236835,
            "responseTime": 1642446655729,
            "catchQuestion": "How many <b class=\"r\">red<\/b> marbles did your opponent report drawing? ",
            "catchKey": -1,
            "catchResponse": -1,
            "catchTime": 1642446555137,
            "trialTime": 0
        },
        {
            "exptPart": "trial",
            "trialNumber": 44,
            "roleCurrent": "receiver",
            "marblesSampled": 100,
            "probRed": 0.5,
            "lambda": 5,
            "drawnRed": 53,
            "reportedRed": 58,
            "inferredRed": 50,
            "playerTrialScore": -3,
            "oppTrialScore": 0,
            "playerTotalScore": 171,
            "oppTotalScore": -255,
            "waitTime": 7190.938422296207,
            "responseTime": 1642446674737,
            "catchQuestion": "How many <b class=\"r\">red<\/b> marbles did your opponent report drawing? ",
            "catchKey": -1,
            "catchResponse": -1,
            "catchTime": 1642446555137,
            "trialTime": 0
        },
        {
            "exptPart": "trial",
            "trialNumber": 45,
            "roleCurrent": "sender",
            "marblesSampled": 100,
            "probRed": 0.5,
            "lambda": 5,
            "drawnRed": 44,
            "reportedRed": 53,
            "inferredRed": 48,
            "playerTrialScore": 4,
            "oppTrialScore": -4,
            "playerTotalScore": 175,
            "oppTotalScore": -259,
            "waitTime": 2086.82291323804,
            "responseTime": 1642446694362,
            "catchQuestion": "How many <b class=\"r\">red<\/b> marbles did you actually draw (before any changes)? ",
            "catchKey": 44,
            "catchResponse": 43,
            "catchTime": 1642446694363,
            "trialTime": 0
        },
        {
            "exptPart": "trial",
            "trialNumber": 46,
            "roleCurrent": "receiver",
            "marblesSampled": 100,
            "probRed": 0.5,
            "lambda": 5,
            "drawnRed": 69,
            "reportedRed": 70,
            "inferredRed": 63,
            "playerTrialScore": -6,
            "oppTrialScore": 0,
            "playerTotalScore": 169,
            "oppTotalScore": -259,
            "waitTime": 5935.202593527682,
            "responseTime": 1642446733754,
            "catchQuestion": "How many <b class=\"r\">red<\/b> marbles did you actually draw (before any changes)? ",
            "catchKey": -1,
            "catchResponse": -1,
            "catchTime": 1642446694363,
            "trialTime": 0
        },
        {
            "exptPart": "trial",
            "trialNumber": 47,
            "roleCurrent": "sender",
            "marblesSampled": 100,
            "probRed": 0.5,
            "lambda": 5,
            "drawnRed": 43,
            "reportedRed": 53,
            "inferredRed": 51,
            "playerTrialScore": 8,
            "oppTrialScore": -8,
            "playerTotalScore": 177,
            "oppTotalScore": -267,
            "waitTime": 2168.739305722416,
            "responseTime": 1642446759342,
            "catchQuestion": "How many <b class=\"r\">red<\/b> marbles did you actually draw (before any changes)? ",
            "catchKey": 43,
            "catchResponse": 43,
            "catchTime": 1642446759343,
            "trialTime": 0
        },
        {
            "exptPart": "trial",
            "trialNumber": 48,
            "roleCurrent": "receiver",
            "marblesSampled": 100,
            "probRed": 0.5,
            "lambda": 5,
            "drawnRed": 48,
            "reportedRed": 55,
            "inferredRed": 49,
            "playerTrialScore": -1,
            "oppTrialScore": 1,
            "playerTotalScore": 176,
            "oppTotalScore": -266,
            "waitTime": 7457.849345114292,
            "responseTime": 1642446778863,
            "catchQuestion": "How many <b class=\"r\">red<\/b> marbles did you actually draw (before any changes)? ",
            "catchKey": -1,
            "catchResponse": -1,
            "catchTime": 1642446759343,
            "trialTime": 0
        },
        {
            "exptPart": "trial",
            "trialNumber": 49,
            "roleCurrent": "sender",
            "marblesSampled": 100,
            "probRed": 0.5,
            "lambda": 5,
            "drawnRed": 32,
            "reportedRed": 62,
            "inferredRed": 61,
            "playerTrialScore": 29,
            "oppTrialScore": -29,
            "playerTotalScore": 205,
            "oppTotalScore": -295,
            "waitTime": 2812.793072933431,
            "responseTime": 1642446827871,
            "catchQuestion": "How many <b class=\"r\">red<\/b> marbles did you actually draw (before any changes)? ",
            "catchKey": -1,
            "catchResponse": -1,
            "catchTime": 1642446759343,
            "trialTime": 0
        },
        {
            "exptPart": "trial",
            "trialNumber": 50,
            "roleCurrent": "receiver",
            "marblesSampled": 100,
            "probRed": 0.5,
            "lambda": 5,
            "drawnRed": 55,
            "reportedRed": 59,
            "inferredRed": 48,
            "playerTrialScore": -7,
            "oppTrialScore": 0,
            "playerTotalScore": 198,
            "oppTotalScore": -295,
            "waitTime": 6275.338503589592,
            "responseTime": 1642446844486,
            "catchQuestion": "How many <b class=\"r\">red<\/b> marbles did you actually draw (before any changes)? ",
            "catchKey": -1,
            "catchResponse": -1,
            "catchTime": 1642446844486,
            "trialTime": 0
        },
        {
            "exptPart": "trial",
            "trialNumber": 51,
            "roleCurrent": "sender",
            "marblesSampled": 100,
            "probRed": 0.5,
            "lambda": 5,
            "drawnRed": 21,
            "reportedRed": 57,
            "inferredRed": 54,
            "playerTrialScore": 33,
            "oppTrialScore": -33,
            "playerTotalScore": 231,
            "oppTotalScore": -328,
            "waitTime": 2238.050246438763,
            "responseTime": 1642446932262,
            "catchQuestion": "How many <b class=\"r\">red<\/b> marbles did you actually draw (before any changes)? ",
            "catchKey": -1,
            "catchResponse": -1,
            "catchTime": 1642446844486,
            "trialTime": 0
        },
        {
            "exptPart": "trial",
            "trialNumber": 52,
            "roleCurrent": "receiver",
            "marblesSampled": 100,
            "probRed": 0.5,
            "lambda": 5,
            "drawnRed": 72,
            "reportedRed": 79,
            "inferredRed": 72,
            "playerTrialScore": 0,
            "oppTrialScore": 0,
            "playerTotalScore": 231,
            "oppTotalScore": -328,
            "waitTime": 5865.582982522437,
            "responseTime": 1642446945049,
            "catchQuestion": "How many <b class=\"r\">red<\/b> marbles did you actually draw (before any changes)? ",
            "catchKey": -1,
            "catchResponse": -1,
            "catchTime": 1642446844486,
            "trialTime": 0
        },
        {
            "exptPart": "trial",
            "trialNumber": 53,
            "roleCurrent": "sender",
            "marblesSampled": 100,
            "probRed": 0.5,
            "lambda": 5,
            "drawnRed": 76,
            "reportedRed": 91,
            "inferredRed": 82,
            "playerTrialScore": 6,
            "oppTrialScore": -6,
            "playerTotalScore": 237,
            "oppTotalScore": -334,
            "waitTime": 2182.2034760741662,
            "responseTime": 1642446985430,
            "catchQuestion": "How many <b class=\"r\">red<\/b> marbles did you actually draw (before any changes)? ",
            "catchKey": -1,
            "catchResponse": -1,
            "catchTime": 1642446844486,
            "trialTime": 0
        },
        {
            "exptPart": "trial",
            "trialNumber": 54,
            "roleCurrent": "receiver",
            "marblesSampled": 100,
            "probRed": 0.5,
            "lambda": 5,
            "drawnRed": 52,
            "reportedRed": 56,
            "inferredRed": 48,
            "playerTrialScore": -4,
            "oppTrialScore": 0,
            "playerTotalScore": 233,
            "oppTotalScore": -334,
            "waitTime": 7286.0076217860205,
            "responseTime": 1642446997534,
            "catchQuestion": "How many <b class=\"r\">red<\/b> marbles did your opponent report drawing? ",
            "catchKey": 56,
            "catchResponse": 56,
            "catchTime": 1642446997534,
            "trialTime": 0
        },
        {
            "exptPart": "trial",
            "trialNumber": 55,
            "roleCurrent": "sender",
            "marblesSampled": 100,
            "probRed": 0.5,
            "lambda": 5,
            "drawnRed": 24,
            "reportedRed": 58,
            "inferredRed": 58,
            "playerTrialScore": 34,
            "oppTrialScore": -34,
            "playerTotalScore": 267,
            "oppTotalScore": -368,
            "waitTime": 2979.228938875215,
            "responseTime": 1642447060388,
            "catchQuestion": "How many <b class=\"r\">red<\/b> marbles did your opponent report drawing? ",
            "catchKey": -1,
            "catchResponse": -1,
            "catchTime": 1642447060388,
            "trialTime": 0
        },
        {
            "exptPart": "trial",
            "trialNumber": 56,
            "roleCurrent": "receiver",
            "marblesSampled": 100,
            "probRed": 0.5,
            "lambda": 5,
            "drawnRed": 49,
            "reportedRed": 54,
            "inferredRed": 44,
            "playerTrialScore": -5,
            "oppTrialScore": 0,
            "playerTotalScore": 262,
            "oppTotalScore": -368,
            "waitTime": 7176.060678051849,
            "responseTime": 1642447081292,
            "catchQuestion": "How many <b class=\"r\">red<\/b> marbles did your opponent report drawing? ",
            "catchKey": -1,
            "catchResponse": -1,
            "catchTime": 1642447060388,
            "trialTime": 0
        },
        {
            "exptPart": "trial",
            "trialNumber": 57,
            "roleCurrent": "sender",
            "marblesSampled": 100,
            "probRed": 0.5,
            "lambda": 5,
            "drawnRed": 71,
            "reportedRed": 80,
            "inferredRed": 74,
            "playerTrialScore": 3,
            "oppTrialScore": -3,
            "playerTotalScore": 265,
            "oppTotalScore": -371,
            "waitTime": 2368.914960219042,
            "responseTime": 1642447114353,
            "catchQuestion": "How many <b class=\"r\">red<\/b> marbles did your opponent report drawing? ",
            "catchKey": -1,
            "catchResponse": -1,
            "catchTime": 1642447060388,
            "trialTime": 0
        },
        {
            "exptPart": "trial",
            "trialNumber": 58,
            "roleCurrent": "receiver",
            "marblesSampled": 100,
            "probRed": 0.5,
            "lambda": 5,
            "drawnRed": 77,
            "reportedRed": 80,
            "inferredRed": 71,
            "playerTrialScore": -6,
            "oppTrialScore": 0,
            "playerTotalScore": 259,
            "oppTotalScore": -371,
            "waitTime": 6046.989835894453,
            "responseTime": 1642447128812,
            "catchQuestion": "How many <b class=\"r\">red<\/b> marbles did your opponent report drawing? ",
            "catchKey": -1,
            "catchResponse": -1,
            "catchTime": 1642447060388,
            "trialTime": 0
        },
        {
            "exptPart": "trial",
            "trialNumber": 59,
            "roleCurrent": "sender",
            "marblesSampled": 100,
            "probRed": 0.5,
            "lambda": 5,
            "drawnRed": 64,
            "reportedRed": 91,
            "inferredRed": 88,
            "playerTrialScore": 24,
            "oppTrialScore": -24,
            "playerTotalScore": 283,
            "oppTotalScore": -395,
            "waitTime": 2621.3141254473367,
            "responseTime": 1642447168657,
            "catchQuestion": "How many <b class=\"r\">red<\/b> marbles did your opponent report drawing? ",
            "catchKey": -1,
            "catchResponse": -1,
            "catchTime": 1642447060388,
            "trialTime": 0
        },
        {
            "exptPart": "trial",
            "trialNumber": 60,
            "roleCurrent": "receiver",
            "marblesSampled": 100,
            "probRed": 0.5,
            "lambda": 5,
            "drawnRed": 75,
            "reportedRed": 77,
            "inferredRed": 66,
            "playerTrialScore": -9,
            "oppTrialScore": 0,
            "playerTotalScore": 274,
            "oppTotalScore": -395,
            "waitTime": 7367.207916117535,
            "responseTime": 1642447182115,
            "catchQuestion": "How many <b class=\"r\">red<\/b> marbles did your opponent report drawing? ",
            "catchKey": -1,
            "catchResponse": -1,
            "catchTime": 1642447182115,
            "trialTime": 0
        },
        {
            "exptPart": "trial",
            "trialNumber": 61,
            "roleCurrent": "sender",
            "marblesSampled": 100,
            "probRed": 0.5,
            "lambda": 5,
            "drawnRed": 13,
            "reportedRed": 55,
            "inferredRed": 53,
            "playerTrialScore": 40,
            "oppTrialScore": -40,
            "playerTotalScore": 314,
            "oppTotalScore": -435,
            "waitTime": 3011.3164545755035,
            "responseTime": 1642447327421,
            "catchQuestion": "How many <b class=\"r\">red<\/b> marbles did your opponent report drawing? ",
            "catchKey": -1,
            "catchResponse": -1,
            "catchTime": 1642447182115,
            "trialTime": 0
        },
        {
            "exptPart": "trial",
            "trialNumber": 62,
            "roleCurrent": "receiver",
            "marblesSampled": 100,
            "probRed": 0.5,
            "lambda": 5,
            "drawnRed": 60,
            "reportedRed": 65,
            "inferredRed": 52,
            "playerTrialScore": -8,
            "oppTrialScore": 0,
            "playerTotalScore": 306,
            "oppTotalScore": -435,
            "waitTime": 5294.950855742661,
            "responseTime": 1642447339334,
            "catchQuestion": "How many <b class=\"r\">red<\/b> marbles did your opponent report drawing? ",
            "catchKey": -1,
            "catchResponse": -1,
            "catchTime": 1642447182115,
            "trialTime": 0
        },
        {
            "exptPart": "trial",
            "trialNumber": 63,
            "roleCurrent": "sender",
            "marblesSampled": 100,
            "probRed": 0.5,
            "lambda": 5,
            "drawnRed": 26,
            "reportedRed": 58,
            "inferredRed": 49,
            "playerTrialScore": 23,
            "oppTrialScore": -23,
            "playerTotalScore": 329,
            "oppTotalScore": -458,
            "waitTime": 2904.9743221906165,
            "responseTime": 1642447375821,
            "catchQuestion": "How many <b class=\"r\">red<\/b> marbles did your opponent report drawing? ",
            "catchKey": -1,
            "catchResponse": -1,
            "catchTime": 1642447182115,
            "trialTime": 0
        },
        {
            "exptPart": "trial",
            "trialNumber": 64,
            "roleCurrent": "receiver",
            "marblesSampled": 100,
            "probRed": 0.5,
            "lambda": 5,
            "drawnRed": 56,
            "reportedRed": 61,
            "inferredRed": 51,
            "playerTrialScore": -5,
            "oppTrialScore": 0,
            "playerTotalScore": 324,
            "oppTotalScore": -458,
            "waitTime": 6626.423408221464,
            "responseTime": 1642447391820,
            "catchQuestion": "How many <b class=\"r\">red<\/b> marbles did your opponent report drawing? ",
            "catchKey": -1,
            "catchResponse": -1,
            "catchTime": 1642447182115,
            "trialTime": 0
        },
        {
            "exptPart": "trial",
            "trialNumber": 65,
            "roleCurrent": "sender",
            "marblesSampled": 100,
            "probRed": 0.5,
            "lambda": 5,
            "drawnRed": 59,
            "reportedRed": 79,
            "inferredRed": 73,
            "playerTrialScore": 14,
            "oppTrialScore": -14,
            "playerTotalScore": 338,
            "oppTotalScore": -472,
            "waitTime": 2827.205310678764,
            "responseTime": 1642447424879,
            "catchQuestion": "How many <b class=\"r\">red<\/b> marbles did your opponent report drawing? ",
            "catchKey": -1,
            "catchResponse": -1,
            "catchTime": 1642447424879,
            "trialTime": 0
        },
        {
            "exptPart": "trial",
            "trialNumber": 66,
            "roleCurrent": "receiver",
            "marblesSampled": 100,
            "probRed": 0.5,
            "lambda": 5,
            "drawnRed": 58,
            "reportedRed": 71,
            "inferredRed": 62,
            "playerTrialScore": -4,
            "oppTrialScore": 4,
            "playerTotalScore": 334,
            "oppTotalScore": -468,
            "waitTime": 6873.263734672202,
            "responseTime": 1642447446516,
            "catchQuestion": "How many <b class=\"r\">red<\/b> marbles did your opponent report drawing? ",
            "catchKey": -1,
            "catchResponse": -1,
            "catchTime": 1642447424879,
            "trialTime": 0
        },
        {
            "exptPart": "trial",
            "trialNumber": 67,
            "roleCurrent": "sender",
            "marblesSampled": 100,
            "probRed": 0.5,
            "lambda": 5,
            "drawnRed": 81,
            "reportedRed": 92,
            "inferredRed": 87,
            "playerTrialScore": 6,
            "oppTrialScore": -6,
            "playerTotalScore": 340,
            "oppTotalScore": -474,
            "waitTime": 2588.9591997395783,
            "responseTime": 1642447470844,
            "catchQuestion": "How many <b class=\"r\">red<\/b> marbles did your opponent report drawing? ",
            "catchKey": -1,
            "catchResponse": -1,
            "catchTime": 1642447424879,
            "trialTime": 0
        },
        {
            "exptPart": "trial",
            "trialNumber": 68,
            "roleCurrent": "receiver",
            "marblesSampled": 100,
            "probRed": 0.5,
            "lambda": 5,
            "drawnRed": 36,
            "reportedRed": 41,
            "inferredRed": 29,
            "playerTrialScore": -7,
            "oppTrialScore": 0,
            "playerTotalScore": 333,
            "oppTotalScore": -474,
            "waitTime": 5875.527305828042,
            "responseTime": 1642447490202,
            "catchQuestion": "How many <b class=\"r\">red<\/b> marbles did your opponent report drawing? ",
            "catchKey": -1,
            "catchResponse": -1,
            "catchTime": 1642447424879,
            "trialTime": 0
        },
        {
            "exptPart": "trial",
            "trialNumber": 69,
            "roleCurrent": "sender",
            "marblesSampled": 100,
            "probRed": 0.5,
            "lambda": 5,
            "drawnRed": 64,
            "reportedRed": 78,
            "inferredRed": 73,
            "playerTrialScore": 9,
            "oppTrialScore": -9,
            "playerTotalScore": 342,
            "oppTotalScore": -483,
            "waitTime": 2882.728613666701,
            "responseTime": 1642447516646,
            "catchQuestion": "How many <b class=\"r\">red<\/b> marbles did your opponent report drawing? ",
            "catchKey": -1,
            "catchResponse": -1,
            "catchTime": 1642447424879,
            "trialTime": 0
        },
        {
            "exptPart": "trial",
            "trialNumber": 70,
            "roleCurrent": "receiver",
            "marblesSampled": 100,
            "probRed": 0.5,
            "lambda": 5,
            "drawnRed": 62,
            "reportedRed": 67,
            "inferredRed": 60,
            "playerTrialScore": -2,
            "oppTrialScore": 0,
            "playerTotalScore": 340,
            "oppTotalScore": -483,
            "waitTime": 6282.931208779106,
            "responseTime": 1642447535196,
            "catchQuestion": "How many <b class=\"r\">red<\/b> marbles did your opponent report drawing? ",
            "catchKey": -1,
            "catchResponse": -1,
            "catchTime": 1642447535196,
            "trialTime": 0
        },
        {
            "exptPart": "trial",
            "trialNumber": 71,
            "roleCurrent": "sender",
            "marblesSampled": 100,
            "probRed": 0.5,
            "lambda": 5,
            "drawnRed": 47,
            "reportedRed": 57,
            "inferredRed": 50,
            "playerTrialScore": 3,
            "oppTrialScore": -3,
            "playerTotalScore": 343,
            "oppTotalScore": -486,
            "waitTime": 2354.0700438140966,
            "responseTime": 1642447558687,
            "catchQuestion": "How many <b class=\"r\">red<\/b> marbles did your opponent report drawing? ",
            "catchKey": -1,
            "catchResponse": -1,
            "catchTime": 1642447535196,
            "trialTime": 0
        },
        {
            "exptPart": "trial",
            "trialNumber": 72,
            "roleCurrent": "receiver",
            "marblesSampled": 100,
            "probRed": 0.5,
            "lambda": 5,
            "drawnRed": 54,
            "reportedRed": 56,
            "inferredRed": 43,
            "playerTrialScore": -11,
            "oppTrialScore": 0,
            "playerTotalScore": 332,
            "oppTotalScore": -486,
            "waitTime": 5294.137695628298,
            "responseTime": 1642447570463,
            "catchQuestion": "How many <b class=\"r\">red<\/b> marbles did your opponent report drawing? ",
            "catchKey": -1,
            "catchResponse": -1,
            "catchTime": 1642447535196,
            "trialTime": 0
        },
        {
            "exptPart": "trial",
            "trialNumber": 73,
            "roleCurrent": "sender",
            "marblesSampled": 100,
            "probRed": 0.5,
            "lambda": 5,
            "drawnRed": 62,
            "reportedRed": 79,
            "inferredRed": 76,
            "playerTrialScore": 14,
            "oppTrialScore": -14,
            "playerTotalScore": 346,
            "oppTotalScore": -500,
            "waitTime": 2697.0219460544513,
            "responseTime": 1642447604219,
            "catchQuestion": "How many <b class=\"r\">red<\/b> marbles did your opponent report drawing? ",
            "catchKey": -1,
            "catchResponse": -1,
            "catchTime": 1642447535196,
            "trialTime": 0
        },
        {
            "exptPart": "trial",
            "trialNumber": 74,
            "roleCurrent": "receiver",
            "marblesSampled": 100,
            "probRed": 0.5,
            "lambda": 5,
            "drawnRed": 8,
            "reportedRed": 11,
            "inferredRed": 7,
            "playerTrialScore": -1,
            "oppTrialScore": 0,
            "playerTotalScore": 345,
            "oppTotalScore": -500,
            "waitTime": 7318.061890617686,
            "responseTime": 1642447618411,
            "catchQuestion": "How many <b class=\"r\">red<\/b> marbles did your opponent report drawing? ",
            "catchKey": -1,
            "catchResponse": -1,
            "catchTime": 1642447535196,
            "trialTime": 0
        },
        {
            "exptPart": "trial",
            "trialNumber": 75,
            "roleCurrent": "sender",
            "marblesSampled": 100,
            "probRed": 0.5,
            "lambda": 5,
            "drawnRed": 35,
            "reportedRed": 61,
            "inferredRed": 52,
            "playerTrialScore": 17,
            "oppTrialScore": -17,
            "playerTotalScore": 362,
            "oppTotalScore": -517,
            "waitTime": 2972.4579184080562,
            "responseTime": 1642447651977,
            "catchQuestion": "How many <b class=\"r\">red<\/b> marbles did your opponent report drawing? ",
            "catchKey": -1,
            "catchResponse": -1,
            "catchTime": 1642447651977,
            "trialTime": 0
        },
        {
            "exptPart": "trial",
            "trialNumber": 76,
            "roleCurrent": "receiver",
            "marblesSampled": 100,
            "probRed": 0.5,
            "lambda": 5,
            "drawnRed": 49,
            "reportedRed": 53,
            "inferredRed": 45,
            "playerTrialScore": -4,
            "oppTrialScore": 0,
            "playerTotalScore": 358,
            "oppTotalScore": -517,
            "waitTime": 6402.422666244119,
            "responseTime": 1642447667642,
            "catchQuestion": "How many <b class=\"r\">red<\/b> marbles did your opponent report drawing? ",
            "catchKey": -1,
            "catchResponse": -1,
            "catchTime": 1642447651977,
            "trialTime": 0
        },
        {
            "exptPart": "trial",
            "trialNumber": 77,
            "roleCurrent": "sender",
            "marblesSampled": 100,
            "probRed": 0.5,
            "lambda": 5,
            "drawnRed": 19,
            "reportedRed": 32,
            "inferredRed": 29,
            "playerTrialScore": 10,
            "oppTrialScore": -10,
            "playerTotalScore": 368,
            "oppTotalScore": -527,
            "waitTime": 2065.466641075543,
            "responseTime": 1642447690207,
            "catchQuestion": "How many <b class=\"r\">red<\/b> marbles did your opponent report drawing? ",
            "catchKey": -1,
            "catchResponse": -1,
            "catchTime": 1642447651977,
            "trialTime": 0
        },
        {
            "exptPart": "trial",
            "trialNumber": 78,
            "roleCurrent": "receiver",
            "marblesSampled": 100,
            "probRed": 0.5,
            "lambda": 5,
            "drawnRed": 91,
            "reportedRed": 99,
            "inferredRed": 86,
            "playerTrialScore": -5,
            "oppTrialScore": 0,
            "playerTotalScore": 363,
            "oppTotalScore": -527,
            "waitTime": 5546.059507012331,
            "responseTime": 1642447708232,
            "catchQuestion": "How many <b class=\"r\">red<\/b> marbles did your opponent report drawing? ",
            "catchKey": -1,
            "catchResponse": -1,
            "catchTime": 1642447651977,
            "trialTime": 0
        },
        {
            "exptPart": "trial",
            "trialNumber": 79,
            "roleCurrent": "sender",
            "marblesSampled": 100,
            "probRed": 0.5,
            "lambda": 5,
            "drawnRed": 53,
            "reportedRed": 70,
            "inferredRed": 63,
            "playerTrialScore": 10,
            "oppTrialScore": -10,
            "playerTotalScore": 373,
            "oppTotalScore": -537,
            "waitTime": 2095.034364743396,
            "responseTime": 1642447734582,
            "catchQuestion": "How many <b class=\"r\">red<\/b> marbles did your opponent report drawing? ",
            "catchKey": -1,
            "catchResponse": -1,
            "catchTime": 1642447651977,
            "trialTime": 0
        },
        {
            "exptPart": "trial",
            "trialNumber": 80,
            "roleCurrent": "receiver",
            "marblesSampled": 100,
            "probRed": 0.5,
            "lambda": 5,
            "drawnRed": 59,
            "reportedRed": 68,
            "inferredRed": 59,
            "playerTrialScore": 0,
            "oppTrialScore": 0,
            "playerTotalScore": 373,
            "oppTotalScore": -537,
            "waitTime": 5682.543976629,
            "responseTime": 1642447747723,
            "catchQuestion": "How many <b class=\"r\">red<\/b> marbles did your opponent report drawing? ",
            "catchKey": -1,
            "catchResponse": -1,
            "catchTime": 1642447747724,
            "trialTime": 0
        },
        {
            "exptPart": "trial",
            "trialNumber": 81,
            "roleCurrent": "sender",
            "marblesSampled": 100,
            "probRed": 0.5,
            "lambda": 5,
            "drawnRed": 90,
            "reportedRed": 94,
            "inferredRed": 89,
            "playerTrialScore": 0,
            "oppTrialScore": -1,
            "playerTotalScore": 373,
            "oppTotalScore": -538,
            "waitTime": 2306.246509425257,
            "responseTime": 1642447775458,
            "catchQuestion": "How many <b class=\"r\">red<\/b> marbles did your opponent report drawing? ",
            "catchKey": -1,
            "catchResponse": -1,
            "catchTime": 1642447747724,
            "trialTime": 0
        },
        {
            "exptPart": "trial",
            "trialNumber": 82,
            "roleCurrent": "receiver",
            "marblesSampled": 100,
            "probRed": 0.5,
            "lambda": 5,
            "drawnRed": 51,
            "reportedRed": 58,
            "inferredRed": 49,
            "playerTrialScore": -2,
            "oppTrialScore": 0,
            "playerTotalScore": 371,
            "oppTotalScore": -538,
            "waitTime": 6175.635791133962,
            "responseTime": 1642447787411,
            "catchQuestion": "How many <b class=\"r\">red<\/b> marbles did your opponent report drawing? ",
            "catchKey": 58,
            "catchResponse": 58,
            "catchTime": 1642447787411,
            "trialTime": 0
        },
        {
            "exptPart": "trial",
            "trialNumber": 83,
            "roleCurrent": "sender",
            "marblesSampled": 100,
            "probRed": 0.5,
            "lambda": 5,
            "drawnRed": 64,
            "reportedRed": 77,
            "inferredRed": 71,
            "playerTrialScore": 7,
            "oppTrialScore": -7,
            "playerTotalScore": 378,
            "oppTotalScore": -545,
            "waitTime": 2574.824173557287,
            "responseTime": 1642447812913,
            "catchQuestion": "How many <b class=\"r\">red<\/b> marbles did your opponent report drawing? ",
            "catchKey": -1,
            "catchResponse": -1,
            "catchTime": 1642447787411,
            "trialTime": 0
        },
        {
            "exptPart": "trial",
            "trialNumber": 84,
            "roleCurrent": "receiver",
            "marblesSampled": 100,
            "probRed": 0.5,
            "lambda": 5,
            "drawnRed": 50,
            "reportedRed": 55,
            "inferredRed": 47,
            "playerTrialScore": -3,
            "oppTrialScore": 0,
            "playerTotalScore": 375,
            "oppTotalScore": -545,
            "waitTime": 5872.27615148668,
            "responseTime": 1642447824139,
            "catchQuestion": "How many <b class=\"r\">red<\/b> marbles did your opponent report drawing? ",
            "catchKey": 55,
            "catchResponse": 55,
            "catchTime": 1642447824139,
            "trialTime": 0
        },
        {
            "exptPart": "trial",
            "trialNumber": 85,
            "roleCurrent": "sender",
            "marblesSampled": 100,
            "probRed": 0.5,
            "lambda": 5,
            "drawnRed": 44,
            "reportedRed": 52,
            "inferredRed": 49,
            "playerTrialScore": 5,
            "oppTrialScore": -5,
            "playerTotalScore": 380,
            "oppTotalScore": -550,
            "waitTime": 2797.4878517312654,
            "responseTime": 1642447846463,
            "catchQuestion": "How many <b class=\"r\">red<\/b> marbles did your opponent report drawing? ",
            "catchKey": -1,
            "catchResponse": -1,
            "catchTime": 1642447846463,
            "trialTime": 0
        },
        {
            "exptPart": "trial",
            "trialNumber": 86,
            "roleCurrent": "receiver",
            "marblesSampled": 100,
            "probRed": 0.5,
            "lambda": 5,
            "drawnRed": 57,
            "reportedRed": 62,
            "inferredRed": 53,
            "playerTrialScore": -4,
            "oppTrialScore": 0,
            "playerTotalScore": 376,
            "oppTotalScore": -550,
            "waitTime": 6681.835166489176,
            "responseTime": 1642447863293,
            "catchQuestion": "How many <b class=\"r\">red<\/b> marbles did your opponent report drawing? ",
            "catchKey": -1,
            "catchResponse": -1,
            "catchTime": 1642447846463,
            "trialTime": 0
        },
        {
            "exptPart": "trial",
            "trialNumber": 87,
            "roleCurrent": "sender",
            "marblesSampled": 100,
            "probRed": 0.5,
            "lambda": 5,
            "drawnRed": 69,
            "reportedRed": 81,
            "inferredRed": 76,
            "playerTrialScore": 7,
            "oppTrialScore": -7,
            "playerTotalScore": 383,
            "oppTotalScore": -557,
            "waitTime": 2783.3765224019917,
            "responseTime": 1642447887098,
            "catchQuestion": "How many <b class=\"r\">red<\/b> marbles did your opponent report drawing? ",
            "catchKey": -1,
            "catchResponse": -1,
            "catchTime": 1642447846463,
            "trialTime": 0
        },
        {
            "exptPart": "trial",
            "trialNumber": 88,
            "roleCurrent": "receiver",
            "marblesSampled": 100,
            "probRed": 0.5,
            "lambda": 5,
            "drawnRed": 50,
            "reportedRed": 56,
            "inferredRed": 46,
            "playerTrialScore": -4,
            "oppTrialScore": 0,
            "playerTotalScore": 379,
            "oppTotalScore": -557,
            "waitTime": 6152.3626457606315,
            "responseTime": 1642447899054,
            "catchQuestion": "How many <b class=\"r\">red<\/b> marbles did your opponent report drawing? ",
            "catchKey": -1,
            "catchResponse": -1,
            "catchTime": 1642447846463,
            "trialTime": 0
        },
        {
            "exptPart": "trial",
            "trialNumber": 89,
            "roleCurrent": "sender",
            "marblesSampled": 100,
            "probRed": 0.5,
            "lambda": 5,
            "drawnRed": 28,
            "reportedRed": 51,
            "inferredRed": 43,
            "playerTrialScore": 15,
            "oppTrialScore": -15,
            "playerTotalScore": 394,
            "oppTotalScore": -572,
            "waitTime": 2092.7743330553494,
            "responseTime": 1642447930406,
            "catchQuestion": "How many <b class=\"r\">red<\/b> marbles did your opponent report drawing? ",
            "catchKey": -1,
            "catchResponse": -1,
            "catchTime": 1642447846463,
            "trialTime": 0
        },
        {
            "exptPart": "trial",
            "trialNumber": 90,
            "roleCurrent": "receiver",
            "marblesSampled": 100,
            "probRed": 0.5,
            "lambda": 5,
            "drawnRed": 78,
            "reportedRed": 83,
            "inferredRed": 72,
            "playerTrialScore": -6,
            "oppTrialScore": 0,
            "playerTotalScore": 388,
            "oppTotalScore": -572,
            "waitTime": 6716.509417762798,
            "responseTime": 1642447943809,
            "catchQuestion": "How many <b class=\"r\">red<\/b> marbles did your opponent report drawing? ",
            "catchKey": -1,
            "catchResponse": -1,
            "catchTime": 1642447943809,
            "trialTime": 0
        },
        {
            "exptPart": "trial",
            "trialNumber": 91,
            "roleCurrent": "sender",
            "marblesSampled": 100,
            "probRed": 0.5,
            "lambda": 5,
            "drawnRed": 50,
            "reportedRed": 67,
            "inferredRed": 63,
            "playerTrialScore": 13,
            "oppTrialScore": -13,
            "playerTotalScore": 401,
            "oppTotalScore": -585,
            "waitTime": 2886.390956098212,
            "responseTime": 1642447970970,
            "catchQuestion": "How many <b class=\"r\">red<\/b> marbles did your opponent report drawing? ",
            "catchKey": -1,
            "catchResponse": -1,
            "catchTime": 1642447943809,
            "trialTime": 0
        },
        {
            "exptPart": "trial",
            "trialNumber": 92,
            "roleCurrent": "receiver",
            "marblesSampled": 100,
            "probRed": 0.5,
            "lambda": 5,
            "drawnRed": 34,
            "reportedRed": 42,
            "inferredRed": 35,
            "playerTrialScore": -1,
            "oppTrialScore": 1,
            "playerTotalScore": 400,
            "oppTotalScore": -584,
            "waitTime": 6534.020233185229,
            "responseTime": 1642447984154,
            "catchQuestion": "How many <b class=\"r\">red<\/b> marbles did your opponent report drawing? ",
            "catchKey": 42,
            "catchResponse": 42,
            "catchTime": 1642447984154,
            "trialTime": 0
        },
        {
            "exptPart": "trial",
            "trialNumber": 93,
            "roleCurrent": "sender",
            "marblesSampled": 100,
            "probRed": 0.5,
            "lambda": 5,
            "drawnRed": 72,
            "reportedRed": 83,
            "inferredRed": 78,
            "playerTrialScore": 6,
            "oppTrialScore": -6,
            "playerTotalScore": 406,
            "oppTotalScore": -590,
            "waitTime": 2795.324875744336,
            "responseTime": 1642448009045,
            "catchQuestion": "How many <b class=\"r\">red<\/b> marbles did you actually draw (before any changes)? ",
            "catchKey": 72,
            "catchResponse": 72,
            "catchTime": 1642448009045,
            "trialTime": 0
        },
        {
            "exptPart": "trial",
            "trialNumber": 94,
            "roleCurrent": "receiver",
            "marblesSampled": 100,
            "probRed": 0.5,
            "lambda": 5,
            "drawnRed": 66,
            "reportedRed": 71,
            "inferredRed": 65,
            "playerTrialScore": -1,
            "oppTrialScore": 0,
            "playerTotalScore": 405,
            "oppTotalScore": -590,
            "waitTime": 6757.777463765189,
            "responseTime": 1642448027095,
            "catchQuestion": "How many <b class=\"r\">red<\/b> marbles did you actually draw (before any changes)? ",
            "catchKey": -1,
            "catchResponse": -1,
            "catchTime": 1642448009045,
            "trialTime": 0
        },
        {
            "exptPart": "trial",
            "trialNumber": 95,
            "roleCurrent": "sender",
            "marblesSampled": 100,
            "probRed": 0.5,
            "lambda": 5,
            "drawnRed": 38,
            "reportedRed": 56,
            "inferredRed": 51,
            "playerTrialScore": 13,
            "oppTrialScore": -13,
            "playerTotalScore": 418,
            "oppTotalScore": -603,
            "waitTime": 2756.467406907524,
            "responseTime": 1642448054157,
            "catchQuestion": "How many <b class=\"r\">red<\/b> marbles did you actually draw (before any changes)? ",
            "catchKey": -1,
            "catchResponse": -1,
            "catchTime": 1642448054157,
            "trialTime": 0
        },
        {
            "exptPart": "trial",
            "trialNumber": 96,
            "roleCurrent": "receiver",
            "marblesSampled": 100,
            "probRed": 0.5,
            "lambda": 5,
            "drawnRed": 81,
            "reportedRed": 86,
            "inferredRed": 80,
            "playerTrialScore": -1,
            "oppTrialScore": 0,
            "playerTotalScore": 417,
            "oppTotalScore": -603,
            "waitTime": 6159.7475105986205,
            "responseTime": 1642448072376,
            "catchQuestion": "How many <b class=\"r\">red<\/b> marbles did you actually draw (before any changes)? ",
            "catchKey": -1,
            "catchResponse": -1,
            "catchTime": 1642448054157,
            "trialTime": 0
        },
        {
            "exptPart": "trial",
            "trialNumber": 97,
            "roleCurrent": "sender",
            "marblesSampled": 100,
            "probRed": 0.5,
            "lambda": 5,
            "drawnRed": 16,
            "reportedRed": 53,
            "inferredRed": 49,
            "playerTrialScore": 33,
            "oppTrialScore": -33,
            "playerTotalScore": 450,
            "oppTotalScore": -636,
            "waitTime": 2726.9647499238367,
            "responseTime": 1642448116634,
            "catchQuestion": "How many <b class=\"r\">red<\/b> marbles did you actually draw (before any changes)? ",
            "catchKey": -1,
            "catchResponse": -1,
            "catchTime": 1642448054157,
            "trialTime": 0
        },
        {
            "exptPart": "trial",
            "trialNumber": 98,
            "roleCurrent": "receiver",
            "marblesSampled": 100,
            "probRed": 0.5,
            "lambda": 5,
            "drawnRed": 34,
            "reportedRed": 40,
            "inferredRed": 33,
            "playerTrialScore": -1,
            "oppTrialScore": 0,
            "playerTotalScore": 449,
            "oppTotalScore": -636,
            "waitTime": 6367.339489725329,
            "responseTime": 1642448127626,
            "catchQuestion": "How many <b class=\"r\">red<\/b> marbles did you actually draw (before any changes)? ",
            "catchKey": -1,
            "catchResponse": -1,
            "catchTime": 1642448054157,
            "trialTime": 0
        },
        {
            "exptPart": "trial",
            "trialNumber": 99,
            "roleCurrent": "sender",
            "marblesSampled": 100,
            "probRed": 0.5,
            "lambda": 5,
            "drawnRed": 91,
            "reportedRed": 100,
            "inferredRed": 95,
            "playerTrialScore": 4,
            "oppTrialScore": -4,
            "playerTotalScore": 453,
            "oppTotalScore": -640,
            "waitTime": 2700.175039716101,
            "responseTime": 1642448144744,
            "catchQuestion": "How many <b class=\"r\">red<\/b> marbles did you actually draw (before any changes)? ",
            "catchKey": 91,
            "catchResponse": 91,
            "catchTime": 1642448144744,
            "trialTime": 0
        },
        {
            "exptPart": "trial",
            "trialNumber": 100,
            "roleCurrent": "receiver",
            "marblesSampled": 100,
            "probRed": 0.5,
            "lambda": 5,
            "drawnRed": 45,
            "reportedRed": 46,
            "inferredRed": 37,
            "playerTrialScore": -8,
            "oppTrialScore": 0,
            "playerTotalScore": 445,
            "oppTotalScore": -640,
            "waitTime": 5290.034579170886,
            "responseTime": 1642448158962,
            "catchQuestion": "How many <b class=\"r\">red<\/b> marbles did you actually draw (before any changes)? ",
            "catchKey": -1,
            "catchResponse": -1,
            "catchTime": 1642448158962,
            "trialTime": 0
        }
    ]
}