{
    "client": {
        "type": "sona",
        "experiment_id": 2228,
        "credit_token": "b315147ae43241ea9c65086cb510cfb7",
        "survey_code": "33052",
        "sid": "sona-33052",
        "window": {
            "width": 1440,
            "height": 837
        },
        "screen": {
            "width": 1440,
            "height": 900
        },
        "userAgent": "Mozilla\/5.0 (Macintosh; Intel Mac OS X 10_15_7) AppleWebKit\/605.1.15 (KHTML, like Gecko) Version\/13.1.3 Safari\/605.1.15",
        "score": 0,
        "bonus": 0
    },
    "expt": {
        "saveURL": "submit.simple.php",
        "trials": 100,
        "practiceTrials": 2,
        "marblesSampled": 100,
        "probRed": 0.5,
        "lambdaAI": 5,
        "roleFirst": "sender",
        "roles": [
            "sender",
            "receiver"
        ],
        "cost": "unif",
        "goal": "under",
        "catchTrials": [
            57,
            34,
            93,
            96,
            9,
            51,
            88,
            72,
            81,
            25
        ],
        "scoreTotal": {
            "player": 471,
            "opp": -633
        },
        "sona": {
            "experiment_id": 2228,
            "credit_token": "b315147ae43241ea9c65086cb510cfb7"
        },
        "pilot": false,
        "debug": false
    },
    "trials": [
        {
            "exptPart": "practice",
            "trialNumber": 1,
            "roleCurrent": "sender",
            "marblesSampled": 100,
            "probRed": 0.5,
            "lambda": 5,
            "drawnRed": 33,
            "reportedRed": 19,
            "inferredRed": 22,
            "playerTrialScore": 11,
            "oppTrialScore": -11,
            "playerTotalScore": 11,
            "oppTotalScore": -11,
            "waitTime": 3103.078011428751,
            "responseTime": 1642743595722,
            "catchQuestion": "How many <b class=\"r\">red<\/b> marbles did you actually draw (before any changes)? ",
            "catchKey": 33,
            "catchResponse": 33,
            "catchTime": 1642743595723,
            "trialTime": 0
        },
        {
            "exptPart": "practice",
            "trialNumber": 2,
            "roleCurrent": "receiver",
            "marblesSampled": 100,
            "probRed": 0.5,
            "lambda": 5,
            "drawnRed": 72,
            "reportedRed": 69,
            "inferredRed": 69,
            "playerTrialScore": -3,
            "oppTrialScore": 3,
            "playerTotalScore": 8,
            "oppTotalScore": -8,
            "waitTime": 5654.155825323558,
            "responseTime": 1642743630762,
            "catchQuestion": "How many <b class=\"r\">red<\/b> marbles did your opponent report drawing? ",
            "catchKey": 69,
            "catchResponse": 69,
            "catchTime": 1642743630762,
            "trialTime": 0
        },
        {
            "exptPart": "trial",
            "trialNumber": 1,
            "roleCurrent": "sender",
            "marblesSampled": 100,
            "probRed": 0.5,
            "lambda": 5,
            "drawnRed": 42,
            "reportedRed": 28,
            "inferredRed": 31,
            "playerTrialScore": 11,
            "oppTrialScore": -11,
            "playerTotalScore": 11,
            "oppTotalScore": -11,
            "waitTime": 2653.1783754205844,
            "responseTime": 1642743680815,
            "catchQuestion": "How many <b class=\"r\">red<\/b> marbles did your opponent report drawing? ",
            "catchKey": -1,
            "catchResponse": -1,
            "catchTime": 1642743630762,
            "trialTime": 0
        },
        {
            "exptPart": "trial",
            "trialNumber": 2,
            "roleCurrent": "receiver",
            "marblesSampled": 100,
            "probRed": 0.5,
            "lambda": 5,
            "drawnRed": 29,
            "reportedRed": 22,
            "inferredRed": 28,
            "playerTrialScore": -1,
            "oppTrialScore": 1,
            "playerTotalScore": 10,
            "oppTotalScore": -10,
            "waitTime": 6657.277204725336,
            "responseTime": 1642743696367,
            "catchQuestion": "How many <b class=\"r\">red<\/b> marbles did your opponent report drawing? ",
            "catchKey": -1,
            "catchResponse": -1,
            "catchTime": 1642743630762,
            "trialTime": 0
        },
        {
            "exptPart": "trial",
            "trialNumber": 3,
            "roleCurrent": "sender",
            "marblesSampled": 100,
            "probRed": 0.5,
            "lambda": 5,
            "drawnRed": 70,
            "reportedRed": 41,
            "inferredRed": 46,
            "playerTrialScore": 24,
            "oppTrialScore": -24,
            "playerTotalScore": 34,
            "oppTotalScore": -34,
            "waitTime": 2890.444518490146,
            "responseTime": 1642743721296,
            "catchQuestion": "How many <b class=\"r\">red<\/b> marbles did your opponent report drawing? ",
            "catchKey": -1,
            "catchResponse": -1,
            "catchTime": 1642743630762,
            "trialTime": 0
        },
        {
            "exptPart": "trial",
            "trialNumber": 4,
            "roleCurrent": "receiver",
            "marblesSampled": 100,
            "probRed": 0.5,
            "lambda": 5,
            "drawnRed": 80,
            "reportedRed": 76,
            "inferredRed": 80,
            "playerTrialScore": 0,
            "oppTrialScore": 0,
            "playerTotalScore": 34,
            "oppTotalScore": -34,
            "waitTime": 5906.662339352795,
            "responseTime": 1642743734441,
            "catchQuestion": "How many <b class=\"r\">red<\/b> marbles did your opponent report drawing? ",
            "catchKey": -1,
            "catchResponse": -1,
            "catchTime": 1642743630762,
            "trialTime": 0
        },
        {
            "exptPart": "trial",
            "trialNumber": 5,
            "roleCurrent": "sender",
            "marblesSampled": 100,
            "probRed": 0.5,
            "lambda": 5,
            "drawnRed": 89,
            "reportedRed": 58,
            "inferredRed": 60,
            "playerTrialScore": 29,
            "oppTrialScore": -29,
            "playerTotalScore": 63,
            "oppTotalScore": -63,
            "waitTime": 2395.055133170118,
            "responseTime": 1642743763584,
            "catchQuestion": "How many <b class=\"r\">red<\/b> marbles did your opponent report drawing? ",
            "catchKey": -1,
            "catchResponse": -1,
            "catchTime": 1642743763584,
            "trialTime": 0
        },
        {
            "exptPart": "trial",
            "trialNumber": 6,
            "roleCurrent": "receiver",
            "marblesSampled": 100,
            "probRed": 0.5,
            "lambda": 5,
            "drawnRed": 40,
            "reportedRed": 34,
            "inferredRed": 43,
            "playerTrialScore": -3,
            "oppTrialScore": 0,
            "playerTotalScore": 60,
            "oppTotalScore": -63,
            "waitTime": 5227.685571482303,
            "responseTime": 1642743784227,
            "catchQuestion": "How many <b class=\"r\">red<\/b> marbles did your opponent report drawing? ",
            "catchKey": -1,
            "catchResponse": -1,
            "catchTime": 1642743763584,
            "trialTime": 0
        },
        {
            "exptPart": "trial",
            "trialNumber": 7,
            "roleCurrent": "sender",
            "marblesSampled": 100,
            "probRed": 0.5,
            "lambda": 5,
            "drawnRed": 66,
            "reportedRed": 50,
            "inferredRed": 53,
            "playerTrialScore": 13,
            "oppTrialScore": -13,
            "playerTotalScore": 73,
            "oppTotalScore": -76,
            "waitTime": 2955.998638393347,
            "responseTime": 1642743805799,
            "catchQuestion": "How many <b class=\"r\">red<\/b> marbles did your opponent report drawing? ",
            "catchKey": -1,
            "catchResponse": -1,
            "catchTime": 1642743763584,
            "trialTime": 0
        },
        {
            "exptPart": "trial",
            "trialNumber": 8,
            "roleCurrent": "receiver",
            "marblesSampled": 100,
            "probRed": 0.5,
            "lambda": 5,
            "drawnRed": 49,
            "reportedRed": 42,
            "inferredRed": 45,
            "playerTrialScore": -4,
            "oppTrialScore": 4,
            "playerTotalScore": 69,
            "oppTotalScore": -72,
            "waitTime": 5372.1756319165215,
            "responseTime": 1642743814543,
            "catchQuestion": "How many <b class=\"r\">red<\/b> marbles did your opponent report drawing? ",
            "catchKey": -1,
            "catchResponse": -1,
            "catchTime": 1642743763584,
            "trialTime": 0
        },
        {
            "exptPart": "trial",
            "trialNumber": 9,
            "roleCurrent": "sender",
            "marblesSampled": 100,
            "probRed": 0.5,
            "lambda": 5,
            "drawnRed": 43,
            "reportedRed": 43,
            "inferredRed": 47,
            "playerTrialScore": 0,
            "oppTrialScore": -4,
            "playerTotalScore": 69,
            "oppTotalScore": -76,
            "waitTime": 3224.1491274581526,
            "responseTime": 1642743824633,
            "catchQuestion": "How many <b class=\"r\">red<\/b> marbles did your opponent report drawing? ",
            "catchKey": -1,
            "catchResponse": -1,
            "catchTime": 1642743763584,
            "trialTime": 0
        },
        {
            "exptPart": "trial",
            "trialNumber": 10,
            "roleCurrent": "receiver",
            "marblesSampled": 100,
            "probRed": 0.5,
            "lambda": 5,
            "drawnRed": 57,
            "reportedRed": 52,
            "inferredRed": 64,
            "playerTrialScore": -7,
            "oppTrialScore": 0,
            "playerTotalScore": 62,
            "oppTotalScore": -76,
            "waitTime": 6123.071225859437,
            "responseTime": 1642743845672,
            "catchQuestion": "How many <b class=\"r\">red<\/b> marbles did your opponent report drawing? ",
            "catchKey": 52,
            "catchResponse": 52,
            "catchTime": 1642743845672,
            "trialTime": 0
        },
        {
            "exptPart": "trial",
            "trialNumber": 11,
            "roleCurrent": "sender",
            "marblesSampled": 100,
            "probRed": 0.5,
            "lambda": 5,
            "drawnRed": 44,
            "reportedRed": 51,
            "inferredRed": 57,
            "playerTrialScore": 0,
            "oppTrialScore": -13,
            "playerTotalScore": 62,
            "oppTotalScore": -89,
            "waitTime": 3154.4592382687847,
            "responseTime": 1642743887384,
            "catchQuestion": "How many <b class=\"r\">red<\/b> marbles did your opponent report drawing? ",
            "catchKey": -1,
            "catchResponse": -1,
            "catchTime": 1642743845672,
            "trialTime": 0
        },
        {
            "exptPart": "trial",
            "trialNumber": 12,
            "roleCurrent": "receiver",
            "marblesSampled": 100,
            "probRed": 0.5,
            "lambda": 5,
            "drawnRed": 26,
            "reportedRed": 21,
            "inferredRed": 30,
            "playerTrialScore": -4,
            "oppTrialScore": 0,
            "playerTotalScore": 58,
            "oppTotalScore": -89,
            "waitTime": 5793.33293222793,
            "responseTime": 1642743896961,
            "catchQuestion": "How many <b class=\"r\">red<\/b> marbles did your opponent report drawing? ",
            "catchKey": -1,
            "catchResponse": -1,
            "catchTime": 1642743845672,
            "trialTime": 0
        },
        {
            "exptPart": "trial",
            "trialNumber": 13,
            "roleCurrent": "sender",
            "marblesSampled": 100,
            "probRed": 0.5,
            "lambda": 5,
            "drawnRed": 48,
            "reportedRed": 25,
            "inferredRed": 31,
            "playerTrialScore": 17,
            "oppTrialScore": -17,
            "playerTotalScore": 75,
            "oppTotalScore": -106,
            "waitTime": 2397.639619763164,
            "responseTime": 1642743922269,
            "catchQuestion": "How many <b class=\"r\">red<\/b> marbles did your opponent report drawing? ",
            "catchKey": -1,
            "catchResponse": -1,
            "catchTime": 1642743845672,
            "trialTime": 0
        },
        {
            "exptPart": "trial",
            "trialNumber": 14,
            "roleCurrent": "receiver",
            "marblesSampled": 100,
            "probRed": 0.5,
            "lambda": 5,
            "drawnRed": 57,
            "reportedRed": 54,
            "inferredRed": 58,
            "playerTrialScore": -1,
            "oppTrialScore": 0,
            "playerTotalScore": 74,
            "oppTotalScore": -106,
            "waitTime": 5340.977394966585,
            "responseTime": 1642743931933,
            "catchQuestion": "How many <b class=\"r\">red<\/b> marbles did your opponent report drawing? ",
            "catchKey": -1,
            "catchResponse": -1,
            "catchTime": 1642743845672,
            "trialTime": 0
        },
        {
            "exptPart": "trial",
            "trialNumber": 15,
            "roleCurrent": "sender",
            "marblesSampled": 100,
            "probRed": 0.5,
            "lambda": 5,
            "drawnRed": 58,
            "reportedRed": 34,
            "inferredRed": 42,
            "playerTrialScore": 16,
            "oppTrialScore": -16,
            "playerTotalScore": 90,
            "oppTotalScore": -122,
            "waitTime": 2365.4025375462934,
            "responseTime": 1642743951341,
            "catchQuestion": "How many <b class=\"r\">red<\/b> marbles did your opponent report drawing? ",
            "catchKey": -1,
            "catchResponse": -1,
            "catchTime": 1642743951341,
            "trialTime": 0
        },
        {
            "exptPart": "trial",
            "trialNumber": 16,
            "roleCurrent": "receiver",
            "marblesSampled": 100,
            "probRed": 0.5,
            "lambda": 5,
            "drawnRed": 53,
            "reportedRed": 46,
            "inferredRed": 52,
            "playerTrialScore": -1,
            "oppTrialScore": 1,
            "playerTotalScore": 89,
            "oppTotalScore": -121,
            "waitTime": 5808.051898379979,
            "responseTime": 1642743970428,
            "catchQuestion": "How many <b class=\"r\">red<\/b> marbles did your opponent report drawing? ",
            "catchKey": -1,
            "catchResponse": -1,
            "catchTime": 1642743951341,
            "trialTime": 0
        },
        {
            "exptPart": "trial",
            "trialNumber": 17,
            "roleCurrent": "sender",
            "marblesSampled": 100,
            "probRed": 0.5,
            "lambda": 5,
            "drawnRed": 52,
            "reportedRed": 43,
            "inferredRed": 49,
            "playerTrialScore": 3,
            "oppTrialScore": -3,
            "playerTotalScore": 92,
            "oppTotalScore": -124,
            "waitTime": 2982.992218195248,
            "responseTime": 1642743986914,
            "catchQuestion": "How many <b class=\"r\">red<\/b> marbles did your opponent report drawing? ",
            "catchKey": -1,
            "catchResponse": -1,
            "catchTime": 1642743951341,
            "trialTime": 0
        },
        {
            "exptPart": "trial",
            "trialNumber": 18,
            "roleCurrent": "receiver",
            "marblesSampled": 100,
            "probRed": 0.5,
            "lambda": 5,
            "drawnRed": 85,
            "reportedRed": 78,
            "inferredRed": 84,
            "playerTrialScore": -1,
            "oppTrialScore": 1,
            "playerTotalScore": 91,
            "oppTotalScore": -123,
            "waitTime": 6434.464358506414,
            "responseTime": 1642744000000,
            "catchQuestion": "How many <b class=\"r\">red<\/b> marbles did your opponent report drawing? ",
            "catchKey": -1,
            "catchResponse": -1,
            "catchTime": 1642743951341,
            "trialTime": 0
        },
        {
            "exptPart": "trial",
            "trialNumber": 19,
            "roleCurrent": "sender",
            "marblesSampled": 100,
            "probRed": 0.5,
            "lambda": 5,
            "drawnRed": 60,
            "reportedRed": 36,
            "inferredRed": 40,
            "playerTrialScore": 20,
            "oppTrialScore": -20,
            "playerTotalScore": 111,
            "oppTotalScore": -143,
            "waitTime": 3011.125401087432,
            "responseTime": 1642744025168,
            "catchQuestion": "How many <b class=\"r\">red<\/b> marbles did your opponent report drawing? ",
            "catchKey": -1,
            "catchResponse": -1,
            "catchTime": 1642743951341,
            "trialTime": 0
        },
        {
            "exptPart": "trial",
            "trialNumber": 20,
            "roleCurrent": "receiver",
            "marblesSampled": 100,
            "probRed": 0.5,
            "lambda": 5,
            "drawnRed": 75,
            "reportedRed": 71,
            "inferredRed": 73,
            "playerTrialScore": -2,
            "oppTrialScore": 2,
            "playerTotalScore": 109,
            "oppTotalScore": -141,
            "waitTime": 6946.905921513794,
            "responseTime": 1642744035615,
            "catchQuestion": "How many <b class=\"r\">red<\/b> marbles did your opponent report drawing? ",
            "catchKey": -1,
            "catchResponse": -1,
            "catchTime": 1642744035615,
            "trialTime": 0
        },
        {
            "exptPart": "trial",
            "trialNumber": 21,
            "roleCurrent": "sender",
            "marblesSampled": 100,
            "probRed": 0.5,
            "lambda": 5,
            "drawnRed": 75,
            "reportedRed": 42,
            "inferredRed": 45,
            "playerTrialScore": 30,
            "oppTrialScore": -30,
            "playerTotalScore": 139,
            "oppTotalScore": -171,
            "waitTime": 3170.9183853738095,
            "responseTime": 1642744073774,
            "catchQuestion": "How many <b class=\"r\">red<\/b> marbles did your opponent report drawing? ",
            "catchKey": -1,
            "catchResponse": -1,
            "catchTime": 1642744035615,
            "trialTime": 0
        },
        {
            "exptPart": "trial",
            "trialNumber": 22,
            "roleCurrent": "receiver",
            "marblesSampled": 100,
            "probRed": 0.5,
            "lambda": 5,
            "drawnRed": 28,
            "reportedRed": 23,
            "inferredRed": 35,
            "playerTrialScore": -7,
            "oppTrialScore": 0,
            "playerTotalScore": 132,
            "oppTotalScore": -171,
            "waitTime": 5923.9118115964975,
            "responseTime": 1642744084673,
            "catchQuestion": "How many <b class=\"r\">red<\/b> marbles did your opponent report drawing? ",
            "catchKey": -1,
            "catchResponse": -1,
            "catchTime": 1642744035615,
            "trialTime": 0
        },
        {
            "exptPart": "trial",
            "trialNumber": 23,
            "roleCurrent": "sender",
            "marblesSampled": 100,
            "probRed": 0.5,
            "lambda": 5,
            "drawnRed": 45,
            "reportedRed": 45,
            "inferredRed": 51,
            "playerTrialScore": 0,
            "oppTrialScore": -6,
            "playerTotalScore": 132,
            "oppTotalScore": -177,
            "waitTime": 3131.04395074809,
            "responseTime": 1642744096139,
            "catchQuestion": "How many <b class=\"r\">red<\/b> marbles did your opponent report drawing? ",
            "catchKey": -1,
            "catchResponse": -1,
            "catchTime": 1642744035615,
            "trialTime": 0
        },
        {
            "exptPart": "trial",
            "trialNumber": 24,
            "roleCurrent": "receiver",
            "marblesSampled": 100,
            "probRed": 0.5,
            "lambda": 5,
            "drawnRed": 49,
            "reportedRed": 46,
            "inferredRed": 50,
            "playerTrialScore": -1,
            "oppTrialScore": 0,
            "playerTotalScore": 131,
            "oppTotalScore": -177,
            "waitTime": 5415.91272487551,
            "responseTime": 1642744106695,
            "catchQuestion": "How many <b class=\"r\">red<\/b> marbles did your opponent report drawing? ",
            "catchKey": -1,
            "catchResponse": -1,
            "catchTime": 1642744035615,
            "trialTime": 0
        },
        {
            "exptPart": "trial",
            "trialNumber": 25,
            "roleCurrent": "sender",
            "marblesSampled": 100,
            "probRed": 0.5,
            "lambda": 5,
            "drawnRed": 44,
            "reportedRed": 20,
            "inferredRed": 22,
            "playerTrialScore": 22,
            "oppTrialScore": -22,
            "playerTotalScore": 153,
            "oppTotalScore": -199,
            "waitTime": 2646.7804304219617,
            "responseTime": 1642744134052,
            "catchQuestion": "How many <b class=\"r\">red<\/b> marbles did your opponent report drawing? ",
            "catchKey": -1,
            "catchResponse": -1,
            "catchTime": 1642744134052,
            "trialTime": 0
        },
        {
            "exptPart": "trial",
            "trialNumber": 26,
            "roleCurrent": "receiver",
            "marblesSampled": 100,
            "probRed": 0.5,
            "lambda": 5,
            "drawnRed": 33,
            "reportedRed": 24,
            "inferredRed": 35,
            "playerTrialScore": -2,
            "oppTrialScore": 0,
            "playerTotalScore": 151,
            "oppTotalScore": -199,
            "waitTime": 6091.966164206004,
            "responseTime": 1642744149912,
            "catchQuestion": "How many <b class=\"r\">red<\/b> marbles did your opponent report drawing? ",
            "catchKey": 24,
            "catchResponse": 24,
            "catchTime": 1642744149912,
            "trialTime": 0
        },
        {
            "exptPart": "trial",
            "trialNumber": 27,
            "roleCurrent": "sender",
            "marblesSampled": 100,
            "probRed": 0.5,
            "lambda": 5,
            "drawnRed": 39,
            "reportedRed": 25,
            "inferredRed": 33,
            "playerTrialScore": 6,
            "oppTrialScore": -6,
            "playerTotalScore": 157,
            "oppTotalScore": -205,
            "waitTime": 3130.9840759145864,
            "responseTime": 1642744173724,
            "catchQuestion": "How many <b class=\"r\">red<\/b> marbles did your opponent report drawing? ",
            "catchKey": -1,
            "catchResponse": -1,
            "catchTime": 1642744149912,
            "trialTime": 0
        },
        {
            "exptPart": "trial",
            "trialNumber": 28,
            "roleCurrent": "receiver",
            "marblesSampled": 100,
            "probRed": 0.5,
            "lambda": 5,
            "drawnRed": 83,
            "reportedRed": 81,
            "inferredRed": 83,
            "playerTrialScore": 0,
            "oppTrialScore": 0,
            "playerTotalScore": 157,
            "oppTotalScore": -205,
            "waitTime": 6074.282131721904,
            "responseTime": 1642744184599,
            "catchQuestion": "How many <b class=\"r\">red<\/b> marbles did your opponent report drawing? ",
            "catchKey": -1,
            "catchResponse": -1,
            "catchTime": 1642744149912,
            "trialTime": 0
        },
        {
            "exptPart": "trial",
            "trialNumber": 29,
            "roleCurrent": "sender",
            "marblesSampled": 100,
            "probRed": 0.5,
            "lambda": 5,
            "drawnRed": 53,
            "reportedRed": 44,
            "inferredRed": 48,
            "playerTrialScore": 5,
            "oppTrialScore": -5,
            "playerTotalScore": 162,
            "oppTotalScore": -210,
            "waitTime": 2078.600566609628,
            "responseTime": 1642744200958,
            "catchQuestion": "How many <b class=\"r\">red<\/b> marbles did your opponent report drawing? ",
            "catchKey": -1,
            "catchResponse": -1,
            "catchTime": 1642744149912,
            "trialTime": 0
        },
        {
            "exptPart": "trial",
            "trialNumber": 30,
            "roleCurrent": "receiver",
            "marblesSampled": 100,
            "probRed": 0.5,
            "lambda": 5,
            "drawnRed": 53,
            "reportedRed": 49,
            "inferredRed": 54,
            "playerTrialScore": -1,
            "oppTrialScore": 0,
            "playerTotalScore": 161,
            "oppTotalScore": -210,
            "waitTime": 6957.64701227307,
            "responseTime": 1642744213422,
            "catchQuestion": "How many <b class=\"r\">red<\/b> marbles did your opponent report drawing? ",
            "catchKey": -1,
            "catchResponse": -1,
            "catchTime": 1642744213422,
            "trialTime": 0
        },
        {
            "exptPart": "trial",
            "trialNumber": 31,
            "roleCurrent": "sender",
            "marblesSampled": 100,
            "probRed": 0.5,
            "lambda": 5,
            "drawnRed": 2,
            "reportedRed": 5,
            "inferredRed": 11,
            "playerTrialScore": 0,
            "oppTrialScore": -9,
            "playerTotalScore": 161,
            "oppTotalScore": -219,
            "waitTime": 2936.7104426162205,
            "responseTime": 1642744242789,
            "catchQuestion": "How many <b class=\"r\">red<\/b> marbles did your opponent report drawing? ",
            "catchKey": -1,
            "catchResponse": -1,
            "catchTime": 1642744213422,
            "trialTime": 0
        },
        {
            "exptPart": "trial",
            "trialNumber": 32,
            "roleCurrent": "receiver",
            "marblesSampled": 100,
            "probRed": 0.5,
            "lambda": 5,
            "drawnRed": 17,
            "reportedRed": 13,
            "inferredRed": 19,
            "playerTrialScore": -2,
            "oppTrialScore": 0,
            "playerTotalScore": 159,
            "oppTotalScore": -219,
            "waitTime": 6657.564583364943,
            "responseTime": 1642744254439,
            "catchQuestion": "How many <b class=\"r\">red<\/b> marbles did your opponent report drawing? ",
            "catchKey": -1,
            "catchResponse": -1,
            "catchTime": 1642744213422,
            "trialTime": 0
        },
        {
            "exptPart": "trial",
            "trialNumber": 33,
            "roleCurrent": "sender",
            "marblesSampled": 100,
            "probRed": 0.5,
            "lambda": 5,
            "drawnRed": 23,
            "reportedRed": 48,
            "inferredRed": 54,
            "playerTrialScore": 0,
            "oppTrialScore": -31,
            "playerTotalScore": 159,
            "oppTotalScore": -250,
            "waitTime": 3196.514148795765,
            "responseTime": 1642744283441,
            "catchQuestion": "How many <b class=\"r\">red<\/b> marbles did your opponent report drawing? ",
            "catchKey": -1,
            "catchResponse": -1,
            "catchTime": 1642744213422,
            "trialTime": 0
        },
        {
            "exptPart": "trial",
            "trialNumber": 34,
            "roleCurrent": "receiver",
            "marblesSampled": 100,
            "probRed": 0.5,
            "lambda": 5,
            "drawnRed": 58,
            "reportedRed": 56,
            "inferredRed": 63,
            "playerTrialScore": -5,
            "oppTrialScore": 0,
            "playerTotalScore": 154,
            "oppTotalScore": -250,
            "waitTime": 5780.833570076007,
            "responseTime": 1642744295765,
            "catchQuestion": "How many <b class=\"r\">red<\/b> marbles did your opponent report drawing? ",
            "catchKey": -1,
            "catchResponse": -1,
            "catchTime": 1642744213422,
            "trialTime": 0
        },
        {
            "exptPart": "trial",
            "trialNumber": 35,
            "roleCurrent": "sender",
            "marblesSampled": 100,
            "probRed": 0.5,
            "lambda": 5,
            "drawnRed": 20,
            "reportedRed": 10,
            "inferredRed": 15,
            "playerTrialScore": 5,
            "oppTrialScore": -5,
            "playerTotalScore": 159,
            "oppTotalScore": -255,
            "waitTime": 2915.6812081933094,
            "responseTime": 1642744311591,
            "catchQuestion": "How many <b class=\"r\">red<\/b> marbles did you actually draw (before any changes)? ",
            "catchKey": 20,
            "catchResponse": 20,
            "catchTime": 1642744311592,
            "trialTime": 0
        },
        {
            "exptPart": "trial",
            "trialNumber": 36,
            "roleCurrent": "receiver",
            "marblesSampled": 100,
            "probRed": 0.5,
            "lambda": 5,
            "drawnRed": 62,
            "reportedRed": 57,
            "inferredRed": 58,
            "playerTrialScore": -4,
            "oppTrialScore": 4,
            "playerTotalScore": 155,
            "oppTotalScore": -251,
            "waitTime": 5918.524649891043,
            "responseTime": 1642744335656,
            "catchQuestion": "How many <b class=\"r\">red<\/b> marbles did you actually draw (before any changes)? ",
            "catchKey": -1,
            "catchResponse": -1,
            "catchTime": 1642744311592,
            "trialTime": 0
        },
        {
            "exptPart": "trial",
            "trialNumber": 37,
            "roleCurrent": "sender",
            "marblesSampled": 100,
            "probRed": 0.5,
            "lambda": 5,
            "drawnRed": 43,
            "reportedRed": 29,
            "inferredRed": 31,
            "playerTrialScore": 12,
            "oppTrialScore": -12,
            "playerTotalScore": 167,
            "oppTotalScore": -263,
            "waitTime": 2195.720938339041,
            "responseTime": 1642744355512,
            "catchQuestion": "How many <b class=\"r\">red<\/b> marbles did you actually draw (before any changes)? ",
            "catchKey": -1,
            "catchResponse": -1,
            "catchTime": 1642744311592,
            "trialTime": 0
        },
        {
            "exptPart": "trial",
            "trialNumber": 38,
            "roleCurrent": "receiver",
            "marblesSampled": 100,
            "probRed": 0.5,
            "lambda": 5,
            "drawnRed": 20,
            "reportedRed": 16,
            "inferredRed": 35,
            "playerTrialScore": -15,
            "oppTrialScore": 0,
            "playerTotalScore": 152,
            "oppTotalScore": -263,
            "waitTime": 6598.657386458465,
            "responseTime": 1642744366882,
            "catchQuestion": "How many <b class=\"r\">red<\/b> marbles did you actually draw (before any changes)? ",
            "catchKey": -1,
            "catchResponse": -1,
            "catchTime": 1642744311592,
            "trialTime": 0
        },
        {
            "exptPart": "trial",
            "trialNumber": 39,
            "roleCurrent": "sender",
            "marblesSampled": 100,
            "probRed": 0.5,
            "lambda": 5,
            "drawnRed": 31,
            "reportedRed": 28,
            "inferredRed": 31,
            "playerTrialScore": 0,
            "oppTrialScore": 0,
            "playerTotalScore": 152,
            "oppTotalScore": -263,
            "waitTime": 3221.6204865080476,
            "responseTime": 1642744384113,
            "catchQuestion": "How many <b class=\"r\">red<\/b> marbles did you actually draw (before any changes)? ",
            "catchKey": -1,
            "catchResponse": -1,
            "catchTime": 1642744311592,
            "trialTime": 0
        },
        {
            "exptPart": "trial",
            "trialNumber": 40,
            "roleCurrent": "receiver",
            "marblesSampled": 100,
            "probRed": 0.5,
            "lambda": 5,
            "drawnRed": 62,
            "reportedRed": 59,
            "inferredRed": 71,
            "playerTrialScore": -9,
            "oppTrialScore": 0,
            "playerTotalScore": 143,
            "oppTotalScore": -263,
            "waitTime": 7198.9931434378,
            "responseTime": 1642744397979,
            "catchQuestion": "How many <b class=\"r\">red<\/b> marbles did you actually draw (before any changes)? ",
            "catchKey": -1,
            "catchResponse": -1,
            "catchTime": 1642744397982,
            "trialTime": 0
        },
        {
            "exptPart": "trial",
            "trialNumber": 41,
            "roleCurrent": "sender",
            "marblesSampled": 100,
            "probRed": 0.5,
            "lambda": 5,
            "drawnRed": 58,
            "reportedRed": 38,
            "inferredRed": 43,
            "playerTrialScore": 15,
            "oppTrialScore": -15,
            "playerTotalScore": 158,
            "oppTotalScore": -278,
            "waitTime": 2417.2418052200183,
            "responseTime": 1642744424998,
            "catchQuestion": "How many <b class=\"r\">red<\/b> marbles did you actually draw (before any changes)? ",
            "catchKey": -1,
            "catchResponse": -1,
            "catchTime": 1642744397982,
            "trialTime": 0
        },
        {
            "exptPart": "trial",
            "trialNumber": 42,
            "roleCurrent": "receiver",
            "marblesSampled": 100,
            "probRed": 0.5,
            "lambda": 5,
            "drawnRed": 43,
            "reportedRed": 40,
            "inferredRed": 44,
            "playerTrialScore": -1,
            "oppTrialScore": 0,
            "playerTotalScore": 157,
            "oppTotalScore": -278,
            "waitTime": 7177.472724686512,
            "responseTime": 1642744435934,
            "catchQuestion": "How many <b class=\"r\">red<\/b> marbles did you actually draw (before any changes)? ",
            "catchKey": -1,
            "catchResponse": -1,
            "catchTime": 1642744397982,
            "trialTime": 0
        },
        {
            "exptPart": "trial",
            "trialNumber": 43,
            "roleCurrent": "sender",
            "marblesSampled": 100,
            "probRed": 0.5,
            "lambda": 5,
            "drawnRed": 27,
            "reportedRed": 23,
            "inferredRed": 25,
            "playerTrialScore": 2,
            "oppTrialScore": -2,
            "playerTotalScore": 159,
            "oppTotalScore": -280,
            "waitTime": 2134.6567758127812,
            "responseTime": 1642744447013,
            "catchQuestion": "How many <b class=\"r\">red<\/b> marbles did you actually draw (before any changes)? ",
            "catchKey": -1,
            "catchResponse": -1,
            "catchTime": 1642744397982,
            "trialTime": 0
        },
        {
            "exptPart": "trial",
            "trialNumber": 44,
            "roleCurrent": "receiver",
            "marblesSampled": 100,
            "probRed": 0.5,
            "lambda": 5,
            "drawnRed": 52,
            "reportedRed": 45,
            "inferredRed": 50,
            "playerTrialScore": -2,
            "oppTrialScore": 2,
            "playerTotalScore": 157,
            "oppTotalScore": -278,
            "waitTime": 6116.66853863187,
            "responseTime": 1642744458333,
            "catchQuestion": "How many <b class=\"r\">red<\/b> marbles did you actually draw (before any changes)? ",
            "catchKey": -1,
            "catchResponse": -1,
            "catchTime": 1642744397982,
            "trialTime": 0
        },
        {
            "exptPart": "trial",
            "trialNumber": 45,
            "roleCurrent": "sender",
            "marblesSampled": 100,
            "probRed": 0.5,
            "lambda": 5,
            "drawnRed": 86,
            "reportedRed": 50,
            "inferredRed": 58,
            "playerTrialScore": 28,
            "oppTrialScore": -28,
            "playerTotalScore": 185,
            "oppTotalScore": -306,
            "waitTime": 2418.410351952376,
            "responseTime": 1642744491210,
            "catchQuestion": "How many <b class=\"r\">red<\/b> marbles did you actually draw (before any changes)? ",
            "catchKey": -1,
            "catchResponse": -1,
            "catchTime": 1642744491210,
            "trialTime": 0
        },
        {
            "exptPart": "trial",
            "trialNumber": 46,
            "roleCurrent": "receiver",
            "marblesSampled": 100,
            "probRed": 0.5,
            "lambda": 5,
            "drawnRed": 63,
            "reportedRed": 58,
            "inferredRed": 61,
            "playerTrialScore": -2,
            "oppTrialScore": 2,
            "playerTotalScore": 183,
            "oppTotalScore": -304,
            "waitTime": 7418.665885374748,
            "responseTime": 1642744509571,
            "catchQuestion": "How many <b class=\"r\">red<\/b> marbles did you actually draw (before any changes)? ",
            "catchKey": -1,
            "catchResponse": -1,
            "catchTime": 1642744491210,
            "trialTime": 0
        },
        {
            "exptPart": "trial",
            "trialNumber": 47,
            "roleCurrent": "sender",
            "marblesSampled": 100,
            "probRed": 0.5,
            "lambda": 5,
            "drawnRed": 81,
            "reportedRed": 52,
            "inferredRed": 55,
            "playerTrialScore": 26,
            "oppTrialScore": -26,
            "playerTotalScore": 209,
            "oppTotalScore": -330,
            "waitTime": 2761.8868869064618,
            "responseTime": 1642744540424,
            "catchQuestion": "How many <b class=\"r\">red<\/b> marbles did you actually draw (before any changes)? ",
            "catchKey": -1,
            "catchResponse": -1,
            "catchTime": 1642744491210,
            "trialTime": 0
        },
        {
            "exptPart": "trial",
            "trialNumber": 48,
            "roleCurrent": "receiver",
            "marblesSampled": 100,
            "probRed": 0.5,
            "lambda": 5,
            "drawnRed": 55,
            "reportedRed": 53,
            "inferredRed": 58,
            "playerTrialScore": -3,
            "oppTrialScore": 0,
            "playerTotalScore": 206,
            "oppTotalScore": -330,
            "waitTime": 5654.0404594779775,
            "responseTime": 1642744551719,
            "catchQuestion": "How many <b class=\"r\">red<\/b> marbles did you actually draw (before any changes)? ",
            "catchKey": -1,
            "catchResponse": -1,
            "catchTime": 1642744491210,
            "trialTime": 0
        },
        {
            "exptPart": "trial",
            "trialNumber": 49,
            "roleCurrent": "sender",
            "marblesSampled": 100,
            "probRed": 0.5,
            "lambda": 5,
            "drawnRed": 55,
            "reportedRed": 44,
            "inferredRed": 49,
            "playerTrialScore": 6,
            "oppTrialScore": -6,
            "playerTotalScore": 212,
            "oppTotalScore": -336,
            "waitTime": 2884.680014208757,
            "responseTime": 1642744566950,
            "catchQuestion": "How many <b class=\"r\">red<\/b> marbles did you actually draw (before any changes)? ",
            "catchKey": -1,
            "catchResponse": -1,
            "catchTime": 1642744491210,
            "trialTime": 0
        },
        {
            "exptPart": "trial",
            "trialNumber": 50,
            "roleCurrent": "receiver",
            "marblesSampled": 100,
            "probRed": 0.5,
            "lambda": 5,
            "drawnRed": 11,
            "reportedRed": 8,
            "inferredRed": 10,
            "playerTrialScore": -1,
            "oppTrialScore": 1,
            "playerTotalScore": 211,
            "oppTotalScore": -335,
            "waitTime": 6463.703735099654,
            "responseTime": 1642744578320,
            "catchQuestion": "How many <b class=\"r\">red<\/b> marbles did you actually draw (before any changes)? ",
            "catchKey": -1,
            "catchResponse": -1,
            "catchTime": 1642744578320,
            "trialTime": 0
        },
        {
            "exptPart": "trial",
            "trialNumber": 51,
            "roleCurrent": "sender",
            "marblesSampled": 100,
            "probRed": 0.5,
            "lambda": 5,
            "drawnRed": 38,
            "reportedRed": 10,
            "inferredRed": 15,
            "playerTrialScore": 23,
            "oppTrialScore": -23,
            "playerTotalScore": 234,
            "oppTotalScore": -358,
            "waitTime": 2483.2532777468264,
            "responseTime": 1642744623326,
            "catchQuestion": "How many <b class=\"r\">red<\/b> marbles did you actually draw (before any changes)? ",
            "catchKey": -1,
            "catchResponse": -1,
            "catchTime": 1642744578320,
            "trialTime": 0
        },
        {
            "exptPart": "trial",
            "trialNumber": 52,
            "roleCurrent": "receiver",
            "marblesSampled": 100,
            "probRed": 0.5,
            "lambda": 5,
            "drawnRed": 36,
            "reportedRed": 32,
            "inferredRed": 41,
            "playerTrialScore": -5,
            "oppTrialScore": 0,
            "playerTotalScore": 229,
            "oppTotalScore": -358,
            "waitTime": 5670.7572001123335,
            "responseTime": 1642744636937,
            "catchQuestion": "How many <b class=\"r\">red<\/b> marbles did your opponent report drawing? ",
            "catchKey": 32,
            "catchResponse": 32,
            "catchTime": 1642744636938,
            "trialTime": 0
        },
        {
            "exptPart": "trial",
            "trialNumber": 53,
            "roleCurrent": "sender",
            "marblesSampled": 100,
            "probRed": 0.5,
            "lambda": 5,
            "drawnRed": 54,
            "reportedRed": 41,
            "inferredRed": 47,
            "playerTrialScore": 7,
            "oppTrialScore": -7,
            "playerTotalScore": 236,
            "oppTotalScore": -365,
            "waitTime": 2555.856726500732,
            "responseTime": 1642744654854,
            "catchQuestion": "How many <b class=\"r\">red<\/b> marbles did your opponent report drawing? ",
            "catchKey": -1,
            "catchResponse": -1,
            "catchTime": 1642744636938,
            "trialTime": 0
        },
        {
            "exptPart": "trial",
            "trialNumber": 54,
            "roleCurrent": "receiver",
            "marblesSampled": 100,
            "probRed": 0.5,
            "lambda": 5,
            "drawnRed": 33,
            "reportedRed": 31,
            "inferredRed": 35,
            "playerTrialScore": -2,
            "oppTrialScore": 0,
            "playerTotalScore": 234,
            "oppTotalScore": -365,
            "waitTime": 6314.673306915729,
            "responseTime": 1642744664848,
            "catchQuestion": "How many <b class=\"r\">red<\/b> marbles did your opponent report drawing? ",
            "catchKey": -1,
            "catchResponse": -1,
            "catchTime": 1642744636938,
            "trialTime": 0
        },
        {
            "exptPart": "trial",
            "trialNumber": 55,
            "roleCurrent": "sender",
            "marblesSampled": 100,
            "probRed": 0.5,
            "lambda": 5,
            "drawnRed": 45,
            "reportedRed": 36,
            "inferredRed": 40,
            "playerTrialScore": 5,
            "oppTrialScore": -5,
            "playerTotalScore": 239,
            "oppTotalScore": -370,
            "waitTime": 2437.24853983749,
            "responseTime": 1642744678281,
            "catchQuestion": "How many <b class=\"r\">red<\/b> marbles did your opponent report drawing? ",
            "catchKey": -1,
            "catchResponse": -1,
            "catchTime": 1642744678281,
            "trialTime": 0
        },
        {
            "exptPart": "trial",
            "trialNumber": 56,
            "roleCurrent": "receiver",
            "marblesSampled": 100,
            "probRed": 0.5,
            "lambda": 5,
            "drawnRed": 70,
            "reportedRed": 63,
            "inferredRed": 70,
            "playerTrialScore": 0,
            "oppTrialScore": 0,
            "playerTotalScore": 239,
            "oppTotalScore": -370,
            "waitTime": 7451.34047624742,
            "responseTime": 1642744701056,
            "catchQuestion": "How many <b class=\"r\">red<\/b> marbles did your opponent report drawing? ",
            "catchKey": -1,
            "catchResponse": -1,
            "catchTime": 1642744678281,
            "trialTime": 0
        },
        {
            "exptPart": "trial",
            "trialNumber": 57,
            "roleCurrent": "sender",
            "marblesSampled": 100,
            "probRed": 0.5,
            "lambda": 5,
            "drawnRed": 39,
            "reportedRed": 23,
            "inferredRed": 26,
            "playerTrialScore": 13,
            "oppTrialScore": -13,
            "playerTotalScore": 252,
            "oppTotalScore": -383,
            "waitTime": 3210.1686519888112,
            "responseTime": 1642744719979,
            "catchQuestion": "How many <b class=\"r\">red<\/b> marbles did your opponent report drawing? ",
            "catchKey": -1,
            "catchResponse": -1,
            "catchTime": 1642744678281,
            "trialTime": 0
        },
        {
            "exptPart": "trial",
            "trialNumber": 58,
            "roleCurrent": "receiver",
            "marblesSampled": 100,
            "probRed": 0.5,
            "lambda": 5,
            "drawnRed": 78,
            "reportedRed": 71,
            "inferredRed": 74,
            "playerTrialScore": -4,
            "oppTrialScore": 4,
            "playerTotalScore": 248,
            "oppTotalScore": -379,
            "waitTime": 5750.763525107355,
            "responseTime": 1642744732696,
            "catchQuestion": "How many <b class=\"r\">red<\/b> marbles did your opponent report drawing? ",
            "catchKey": 71,
            "catchResponse": 71,
            "catchTime": 1642744732697,
            "trialTime": 0
        },
        {
            "exptPart": "trial",
            "trialNumber": 59,
            "roleCurrent": "sender",
            "marblesSampled": 100,
            "probRed": 0.5,
            "lambda": 5,
            "drawnRed": 21,
            "reportedRed": 17,
            "inferredRed": 20,
            "playerTrialScore": 1,
            "oppTrialScore": -1,
            "playerTotalScore": 249,
            "oppTotalScore": -380,
            "waitTime": 2392.6703345669457,
            "responseTime": 1642744746723,
            "catchQuestion": "How many <b class=\"r\">red<\/b> marbles did your opponent report drawing? ",
            "catchKey": -1,
            "catchResponse": -1,
            "catchTime": 1642744732697,
            "trialTime": 0
        },
        {
            "exptPart": "trial",
            "trialNumber": 60,
            "roleCurrent": "receiver",
            "marblesSampled": 100,
            "probRed": 0.5,
            "lambda": 5,
            "drawnRed": 41,
            "reportedRed": 35,
            "inferredRed": 46,
            "playerTrialScore": -5,
            "oppTrialScore": 0,
            "playerTotalScore": 244,
            "oppTotalScore": -380,
            "waitTime": 6287.089694531027,
            "responseTime": 1642744761233,
            "catchQuestion": "How many <b class=\"r\">red<\/b> marbles did your opponent report drawing? ",
            "catchKey": -1,
            "catchResponse": -1,
            "catchTime": 1642744761233,
            "trialTime": 0
        },
        {
            "exptPart": "trial",
            "trialNumber": 61,
            "roleCurrent": "sender",
            "marblesSampled": 100,
            "probRed": 0.5,
            "lambda": 5,
            "drawnRed": 43,
            "reportedRed": 32,
            "inferredRed": 36,
            "playerTrialScore": 7,
            "oppTrialScore": -7,
            "playerTotalScore": 251,
            "oppTotalScore": -387,
            "waitTime": 2363.690512907996,
            "responseTime": 1642744780338,
            "catchQuestion": "How many <b class=\"r\">red<\/b> marbles did your opponent report drawing? ",
            "catchKey": -1,
            "catchResponse": -1,
            "catchTime": 1642744761233,
            "trialTime": 0
        },
        {
            "exptPart": "trial",
            "trialNumber": 62,
            "roleCurrent": "receiver",
            "marblesSampled": 100,
            "probRed": 0.5,
            "lambda": 5,
            "drawnRed": 52,
            "reportedRed": 48,
            "inferredRed": 49,
            "playerTrialScore": -3,
            "oppTrialScore": 3,
            "playerTotalScore": 248,
            "oppTotalScore": -384,
            "waitTime": 5488.0071308948345,
            "responseTime": 1642744790067,
            "catchQuestion": "How many <b class=\"r\">red<\/b> marbles did your opponent report drawing? ",
            "catchKey": -1,
            "catchResponse": -1,
            "catchTime": 1642744761233,
            "trialTime": 0
        },
        {
            "exptPart": "trial",
            "trialNumber": 63,
            "roleCurrent": "sender",
            "marblesSampled": 100,
            "probRed": 0.5,
            "lambda": 5,
            "drawnRed": 49,
            "reportedRed": 38,
            "inferredRed": 43,
            "playerTrialScore": 6,
            "oppTrialScore": -6,
            "playerTotalScore": 254,
            "oppTotalScore": -390,
            "waitTime": 2251.4202303617603,
            "responseTime": 1642744803786,
            "catchQuestion": "How many <b class=\"r\">red<\/b> marbles did your opponent report drawing? ",
            "catchKey": -1,
            "catchResponse": -1,
            "catchTime": 1642744761233,
            "trialTime": 0
        },
        {
            "exptPart": "trial",
            "trialNumber": 64,
            "roleCurrent": "receiver",
            "marblesSampled": 100,
            "probRed": 0.5,
            "lambda": 5,
            "drawnRed": 68,
            "reportedRed": 61,
            "inferredRed": 66,
            "playerTrialScore": -2,
            "oppTrialScore": 2,
            "playerTotalScore": 252,
            "oppTotalScore": -388,
            "waitTime": 5781.024755563418,
            "responseTime": 1642744813478,
            "catchQuestion": "How many <b class=\"r\">red<\/b> marbles did your opponent report drawing? ",
            "catchKey": -1,
            "catchResponse": -1,
            "catchTime": 1642744761233,
            "trialTime": 0
        },
        {
            "exptPart": "trial",
            "trialNumber": 65,
            "roleCurrent": "sender",
            "marblesSampled": 100,
            "probRed": 0.5,
            "lambda": 5,
            "drawnRed": 37,
            "reportedRed": 27,
            "inferredRed": 34,
            "playerTrialScore": 3,
            "oppTrialScore": -3,
            "playerTotalScore": 255,
            "oppTotalScore": -391,
            "waitTime": 2130.136484424508,
            "responseTime": 1642744828852,
            "catchQuestion": "How many <b class=\"r\">red<\/b> marbles did your opponent report drawing? ",
            "catchKey": -1,
            "catchResponse": -1,
            "catchTime": 1642744828852,
            "trialTime": 0
        },
        {
            "exptPart": "trial",
            "trialNumber": 66,
            "roleCurrent": "receiver",
            "marblesSampled": 100,
            "probRed": 0.5,
            "lambda": 5,
            "drawnRed": 71,
            "reportedRed": 65,
            "inferredRed": 69,
            "playerTrialScore": -2,
            "oppTrialScore": 2,
            "playerTotalScore": 253,
            "oppTotalScore": -389,
            "waitTime": 5544.27374753798,
            "responseTime": 1642744844791,
            "catchQuestion": "How many <b class=\"r\">red<\/b> marbles did your opponent report drawing? ",
            "catchKey": -1,
            "catchResponse": -1,
            "catchTime": 1642744828852,
            "trialTime": 0
        },
        {
            "exptPart": "trial",
            "trialNumber": 67,
            "roleCurrent": "sender",
            "marblesSampled": 100,
            "probRed": 0.5,
            "lambda": 5,
            "drawnRed": 47,
            "reportedRed": 44,
            "inferredRed": 50,
            "playerTrialScore": 0,
            "oppTrialScore": -3,
            "playerTotalScore": 253,
            "oppTotalScore": -392,
            "waitTime": 2250.380281392914,
            "responseTime": 1642744854518,
            "catchQuestion": "How many <b class=\"r\">red<\/b> marbles did your opponent report drawing? ",
            "catchKey": -1,
            "catchResponse": -1,
            "catchTime": 1642744828852,
            "trialTime": 0
        },
        {
            "exptPart": "trial",
            "trialNumber": 68,
            "roleCurrent": "receiver",
            "marblesSampled": 100,
            "probRed": 0.5,
            "lambda": 5,
            "drawnRed": 50,
            "reportedRed": 45,
            "inferredRed": 46,
            "playerTrialScore": -4,
            "oppTrialScore": 4,
            "playerTotalScore": 249,
            "oppTotalScore": -388,
            "waitTime": 6305.842154913053,
            "responseTime": 1642744868111,
            "catchQuestion": "How many <b class=\"r\">red<\/b> marbles did your opponent report drawing? ",
            "catchKey": -1,
            "catchResponse": -1,
            "catchTime": 1642744828852,
            "trialTime": 0
        },
        {
            "exptPart": "trial",
            "trialNumber": 69,
            "roleCurrent": "sender",
            "marblesSampled": 100,
            "probRed": 0.5,
            "lambda": 5,
            "drawnRed": 61,
            "reportedRed": 9,
            "inferredRed": 11,
            "playerTrialScore": 50,
            "oppTrialScore": -50,
            "playerTotalScore": 299,
            "oppTotalScore": -438,
            "waitTime": 2769.067271297132,
            "responseTime": 1642744907373,
            "catchQuestion": "How many <b class=\"r\">red<\/b> marbles did your opponent report drawing? ",
            "catchKey": -1,
            "catchResponse": -1,
            "catchTime": 1642744828852,
            "trialTime": 0
        },
        {
            "exptPart": "trial",
            "trialNumber": 70,
            "roleCurrent": "receiver",
            "marblesSampled": 100,
            "probRed": 0.5,
            "lambda": 5,
            "drawnRed": 29,
            "reportedRed": 24,
            "inferredRed": 32,
            "playerTrialScore": -3,
            "oppTrialScore": 0,
            "playerTotalScore": 296,
            "oppTotalScore": -438,
            "waitTime": 7143.152349931498,
            "responseTime": 1642744920531,
            "catchQuestion": "How many <b class=\"r\">red<\/b> marbles did your opponent report drawing? ",
            "catchKey": -1,
            "catchResponse": -1,
            "catchTime": 1642744920532,
            "trialTime": 0
        },
        {
            "exptPart": "trial",
            "trialNumber": 71,
            "roleCurrent": "sender",
            "marblesSampled": 100,
            "probRed": 0.5,
            "lambda": 5,
            "drawnRed": 56,
            "reportedRed": 26,
            "inferredRed": 29,
            "playerTrialScore": 27,
            "oppTrialScore": -27,
            "playerTotalScore": 323,
            "oppTotalScore": -465,
            "waitTime": 2222.161083985524,
            "responseTime": 1642744949754,
            "catchQuestion": "How many <b class=\"r\">red<\/b> marbles did your opponent report drawing? ",
            "catchKey": -1,
            "catchResponse": -1,
            "catchTime": 1642744920532,
            "trialTime": 0
        },
        {
            "exptPart": "trial",
            "trialNumber": 72,
            "roleCurrent": "receiver",
            "marblesSampled": 100,
            "probRed": 0.5,
            "lambda": 5,
            "drawnRed": 71,
            "reportedRed": 68,
            "inferredRed": 71,
            "playerTrialScore": 0,
            "oppTrialScore": 0,
            "playerTotalScore": 323,
            "oppTotalScore": -465,
            "waitTime": 5354.597402278463,
            "responseTime": 1642744966511,
            "catchQuestion": "How many <b class=\"r\">red<\/b> marbles did your opponent report drawing? ",
            "catchKey": -1,
            "catchResponse": -1,
            "catchTime": 1642744920532,
            "trialTime": 0
        },
        {
            "exptPart": "trial",
            "trialNumber": 73,
            "roleCurrent": "sender",
            "marblesSampled": 100,
            "probRed": 0.5,
            "lambda": 5,
            "drawnRed": 71,
            "reportedRed": 47,
            "inferredRed": 52,
            "playerTrialScore": 19,
            "oppTrialScore": -19,
            "playerTotalScore": 342,
            "oppTotalScore": -484,
            "waitTime": 2276.0075385576565,
            "responseTime": 1642744988815,
            "catchQuestion": "How many <b class=\"r\">red<\/b> marbles did you actually draw (before any changes)? ",
            "catchKey": 71,
            "catchResponse": 71,
            "catchTime": 1642744988815,
            "trialTime": 0
        },
        {
            "exptPart": "trial",
            "trialNumber": 74,
            "roleCurrent": "receiver",
            "marblesSampled": 100,
            "probRed": 0.5,
            "lambda": 5,
            "drawnRed": 65,
            "reportedRed": 56,
            "inferredRed": 56,
            "playerTrialScore": -9,
            "oppTrialScore": 9,
            "playerTotalScore": 333,
            "oppTotalScore": -475,
            "waitTime": 5778.072008198033,
            "responseTime": 1642745004833,
            "catchQuestion": "How many <b class=\"r\">red<\/b> marbles did you actually draw (before any changes)? ",
            "catchKey": -1,
            "catchResponse": -1,
            "catchTime": 1642744988815,
            "trialTime": 0
        },
        {
            "exptPart": "trial",
            "trialNumber": 75,
            "roleCurrent": "sender",
            "marblesSampled": 100,
            "probRed": 0.5,
            "lambda": 5,
            "drawnRed": 34,
            "reportedRed": 29,
            "inferredRed": 36,
            "playerTrialScore": 0,
            "oppTrialScore": -2,
            "playerTotalScore": 333,
            "oppTotalScore": -477,
            "waitTime": 2909.6654503835443,
            "responseTime": 1642745019058,
            "catchQuestion": "How many <b class=\"r\">red<\/b> marbles did you actually draw (before any changes)? ",
            "catchKey": -1,
            "catchResponse": -1,
            "catchTime": 1642745019059,
            "trialTime": 0
        },
        {
            "exptPart": "trial",
            "trialNumber": 76,
            "roleCurrent": "receiver",
            "marblesSampled": 100,
            "probRed": 0.5,
            "lambda": 5,
            "drawnRed": 32,
            "reportedRed": 30,
            "inferredRed": 37,
            "playerTrialScore": -5,
            "oppTrialScore": 0,
            "playerTotalScore": 328,
            "oppTotalScore": -477,
            "waitTime": 6334.218501061943,
            "responseTime": 1642745036979,
            "catchQuestion": "How many <b class=\"r\">red<\/b> marbles did you actually draw (before any changes)? ",
            "catchKey": -1,
            "catchResponse": -1,
            "catchTime": 1642745019059,
            "trialTime": 0
        },
        {
            "exptPart": "trial",
            "trialNumber": 77,
            "roleCurrent": "sender",
            "marblesSampled": 100,
            "probRed": 0.5,
            "lambda": 5,
            "drawnRed": 46,
            "reportedRed": 14,
            "inferredRed": 23,
            "playerTrialScore": 23,
            "oppTrialScore": -23,
            "playerTotalScore": 351,
            "oppTotalScore": -500,
            "waitTime": 3029.42253895089,
            "responseTime": 1642745069645,
            "catchQuestion": "How many <b class=\"r\">red<\/b> marbles did you actually draw (before any changes)? ",
            "catchKey": -1,
            "catchResponse": -1,
            "catchTime": 1642745019059,
            "trialTime": 0
        },
        {
            "exptPart": "trial",
            "trialNumber": 78,
            "roleCurrent": "receiver",
            "marblesSampled": 100,
            "probRed": 0.5,
            "lambda": 5,
            "drawnRed": 48,
            "reportedRed": 42,
            "inferredRed": 48,
            "playerTrialScore": 0,
            "oppTrialScore": 0,
            "playerTotalScore": 351,
            "oppTotalScore": -500,
            "waitTime": 5402.770468602765,
            "responseTime": 1642745078566,
            "catchQuestion": "How many <b class=\"r\">red<\/b> marbles did you actually draw (before any changes)? ",
            "catchKey": -1,
            "catchResponse": -1,
            "catchTime": 1642745019059,
            "trialTime": 0
        },
        {
            "exptPart": "trial",
            "trialNumber": 79,
            "roleCurrent": "sender",
            "marblesSampled": 100,
            "probRed": 0.5,
            "lambda": 5,
            "drawnRed": 80,
            "reportedRed": 51,
            "inferredRed": 54,
            "playerTrialScore": 26,
            "oppTrialScore": -26,
            "playerTotalScore": 377,
            "oppTotalScore": -526,
            "waitTime": 3090.950890733384,
            "responseTime": 1642745104907,
            "catchQuestion": "How many <b class=\"r\">red<\/b> marbles did you actually draw (before any changes)? ",
            "catchKey": -1,
            "catchResponse": -1,
            "catchTime": 1642745019059,
            "trialTime": 0
        },
        {
            "exptPart": "trial",
            "trialNumber": 80,
            "roleCurrent": "receiver",
            "marblesSampled": 100,
            "probRed": 0.5,
            "lambda": 5,
            "drawnRed": 32,
            "reportedRed": 26,
            "inferredRed": 34,
            "playerTrialScore": -2,
            "oppTrialScore": 0,
            "playerTotalScore": 375,
            "oppTotalScore": -526,
            "waitTime": 5850.317436709782,
            "responseTime": 1642745113600,
            "catchQuestion": "How many <b class=\"r\">red<\/b> marbles did you actually draw (before any changes)? ",
            "catchKey": -1,
            "catchResponse": -1,
            "catchTime": 1642745113600,
            "trialTime": 0
        },
        {
            "exptPart": "trial",
            "trialNumber": 81,
            "roleCurrent": "sender",
            "marblesSampled": 100,
            "probRed": 0.5,
            "lambda": 5,
            "drawnRed": 41,
            "reportedRed": 36,
            "inferredRed": 39,
            "playerTrialScore": 2,
            "oppTrialScore": -2,
            "playerTotalScore": 377,
            "oppTotalScore": -528,
            "waitTime": 2878.39513284015,
            "responseTime": 1642745134614,
            "catchQuestion": "How many <b class=\"r\">red<\/b> marbles did you actually draw (before any changes)? ",
            "catchKey": -1,
            "catchResponse": -1,
            "catchTime": 1642745113600,
            "trialTime": 0
        },
        {
            "exptPart": "trial",
            "trialNumber": 82,
            "roleCurrent": "receiver",
            "marblesSampled": 100,
            "probRed": 0.5,
            "lambda": 5,
            "drawnRed": 38,
            "reportedRed": 31,
            "inferredRed": 35,
            "playerTrialScore": -3,
            "oppTrialScore": 3,
            "playerTotalScore": 374,
            "oppTotalScore": -525,
            "waitTime": 5733.878832016027,
            "responseTime": 1642745144089,
            "catchQuestion": "How many <b class=\"r\">red<\/b> marbles did your opponent report drawing? ",
            "catchKey": 31,
            "catchResponse": 31,
            "catchTime": 1642745144089,
            "trialTime": 0
        },
        {
            "exptPart": "trial",
            "trialNumber": 83,
            "roleCurrent": "sender",
            "marblesSampled": 100,
            "probRed": 0.5,
            "lambda": 5,
            "drawnRed": 17,
            "reportedRed": 14,
            "inferredRed": 19,
            "playerTrialScore": 0,
            "oppTrialScore": -2,
            "playerTotalScore": 374,
            "oppTotalScore": -527,
            "waitTime": 2950.9715331492125,
            "responseTime": 1642745160261,
            "catchQuestion": "How many <b class=\"r\">red<\/b> marbles did your opponent report drawing? ",
            "catchKey": -1,
            "catchResponse": -1,
            "catchTime": 1642745144089,
            "trialTime": 0
        },
        {
            "exptPart": "trial",
            "trialNumber": 84,
            "roleCurrent": "receiver",
            "marblesSampled": 100,
            "probRed": 0.5,
            "lambda": 5,
            "drawnRed": 61,
            "reportedRed": 58,
            "inferredRed": 62,
            "playerTrialScore": -1,
            "oppTrialScore": 0,
            "playerTotalScore": 373,
            "oppTotalScore": -527,
            "waitTime": 6680.8651716733375,
            "responseTime": 1642745181370,
            "catchQuestion": "How many <b class=\"r\">red<\/b> marbles did your opponent report drawing? ",
            "catchKey": -1,
            "catchResponse": -1,
            "catchTime": 1642745144089,
            "trialTime": 0
        },
        {
            "exptPart": "trial",
            "trialNumber": 85,
            "roleCurrent": "sender",
            "marblesSampled": 100,
            "probRed": 0.5,
            "lambda": 5,
            "drawnRed": 16,
            "reportedRed": 5,
            "inferredRed": 10,
            "playerTrialScore": 6,
            "oppTrialScore": -6,
            "playerTotalScore": 379,
            "oppTotalScore": -533,
            "waitTime": 2062.848350285007,
            "responseTime": 1642745197358,
            "catchQuestion": "How many <b class=\"r\">red<\/b> marbles did your opponent report drawing? ",
            "catchKey": -1,
            "catchResponse": -1,
            "catchTime": 1642745197358,
            "trialTime": 0
        },
        {
            "exptPart": "trial",
            "trialNumber": 86,
            "roleCurrent": "receiver",
            "marblesSampled": 100,
            "probRed": 0.5,
            "lambda": 5,
            "drawnRed": 59,
            "reportedRed": 57,
            "inferredRed": 58,
            "playerTrialScore": -1,
            "oppTrialScore": 1,
            "playerTotalScore": 378,
            "oppTotalScore": -532,
            "waitTime": 5699.377073538694,
            "responseTime": 1642745212798,
            "catchQuestion": "How many <b class=\"r\">red<\/b> marbles did your opponent report drawing? ",
            "catchKey": -1,
            "catchResponse": -1,
            "catchTime": 1642745197358,
            "trialTime": 0
        },
        {
            "exptPart": "trial",
            "trialNumber": 87,
            "roleCurrent": "sender",
            "marblesSampled": 100,
            "probRed": 0.5,
            "lambda": 5,
            "drawnRed": 26,
            "reportedRed": 24,
            "inferredRed": 27,
            "playerTrialScore": 0,
            "oppTrialScore": -1,
            "playerTotalScore": 378,
            "oppTotalScore": -533,
            "waitTime": 2483.8723533057077,
            "responseTime": 1642745222815,
            "catchQuestion": "How many <b class=\"r\">red<\/b> marbles did your opponent report drawing? ",
            "catchKey": -1,
            "catchResponse": -1,
            "catchTime": 1642745197358,
            "trialTime": 0
        },
        {
            "exptPart": "trial",
            "trialNumber": 88,
            "roleCurrent": "receiver",
            "marblesSampled": 100,
            "probRed": 0.5,
            "lambda": 5,
            "drawnRed": 21,
            "reportedRed": 8,
            "inferredRed": 16,
            "playerTrialScore": -5,
            "oppTrialScore": 5,
            "playerTotalScore": 373,
            "oppTotalScore": -528,
            "waitTime": 5911.328095913403,
            "responseTime": 1642745231499,
            "catchQuestion": "How many <b class=\"r\">red<\/b> marbles did your opponent report drawing? ",
            "catchKey": -1,
            "catchResponse": -1,
            "catchTime": 1642745197358,
            "trialTime": 0
        },
        {
            "exptPart": "trial",
            "trialNumber": 89,
            "roleCurrent": "sender",
            "marblesSampled": 100,
            "probRed": 0.5,
            "lambda": 5,
            "drawnRed": 59,
            "reportedRed": 27,
            "inferredRed": 31,
            "playerTrialScore": 28,
            "oppTrialScore": -28,
            "playerTotalScore": 401,
            "oppTotalScore": -556,
            "waitTime": 2510.0871570671434,
            "responseTime": 1642745256931,
            "catchQuestion": "How many <b class=\"r\">red<\/b> marbles did you actually draw (before any changes)? ",
            "catchKey": 59,
            "catchResponse": 56,
            "catchTime": 1642745256931,
            "trialTime": 0
        },
        {
            "exptPart": "trial",
            "trialNumber": 90,
            "roleCurrent": "receiver",
            "marblesSampled": 100,
            "probRed": 0.5,
            "lambda": 5,
            "drawnRed": 57,
            "reportedRed": 55,
            "inferredRed": 59,
            "playerTrialScore": -2,
            "oppTrialScore": 0,
            "playerTotalScore": 399,
            "oppTotalScore": -556,
            "waitTime": 5705.972180273663,
            "responseTime": 1642745275082,
            "catchQuestion": "How many <b class=\"r\">red<\/b> marbles did you actually draw (before any changes)? ",
            "catchKey": -1,
            "catchResponse": -1,
            "catchTime": 1642745275082,
            "trialTime": 0
        },
        {
            "exptPart": "trial",
            "trialNumber": 91,
            "roleCurrent": "sender",
            "marblesSampled": 100,
            "probRed": 0.5,
            "lambda": 5,
            "drawnRed": 40,
            "reportedRed": 32,
            "inferredRed": 39,
            "playerTrialScore": 1,
            "oppTrialScore": -1,
            "playerTotalScore": 400,
            "oppTotalScore": -557,
            "waitTime": 2645.626992831192,
            "responseTime": 1642745292608,
            "catchQuestion": "How many <b class=\"r\">red<\/b> marbles did you actually draw (before any changes)? ",
            "catchKey": -1,
            "catchResponse": -1,
            "catchTime": 1642745275082,
            "trialTime": 0
        },
        {
            "exptPart": "trial",
            "trialNumber": 92,
            "roleCurrent": "receiver",
            "marblesSampled": 100,
            "probRed": 0.5,
            "lambda": 5,
            "drawnRed": 82,
            "reportedRed": 75,
            "inferredRed": 76,
            "playerTrialScore": -6,
            "oppTrialScore": 6,
            "playerTotalScore": 394,
            "oppTotalScore": -551,
            "waitTime": 5542.543930483807,
            "responseTime": 1642745304955,
            "catchQuestion": "How many <b class=\"r\">red<\/b> marbles did you actually draw (before any changes)? ",
            "catchKey": -1,
            "catchResponse": -1,
            "catchTime": 1642745275082,
            "trialTime": 0
        },
        {
            "exptPart": "trial",
            "trialNumber": 93,
            "roleCurrent": "sender",
            "marblesSampled": 100,
            "probRed": 0.5,
            "lambda": 5,
            "drawnRed": 45,
            "reportedRed": 38,
            "inferredRed": 42,
            "playerTrialScore": 3,
            "oppTrialScore": -3,
            "playerTotalScore": 397,
            "oppTotalScore": -554,
            "waitTime": 2950.618738352886,
            "responseTime": 1642745316347,
            "catchQuestion": "How many <b class=\"r\">red<\/b> marbles did you actually draw (before any changes)? ",
            "catchKey": -1,
            "catchResponse": -1,
            "catchTime": 1642745275082,
            "trialTime": 0
        },
        {
            "exptPart": "trial",
            "trialNumber": 94,
            "roleCurrent": "receiver",
            "marblesSampled": 100,
            "probRed": 0.5,
            "lambda": 5,
            "drawnRed": 66,
            "reportedRed": 59,
            "inferredRed": 59,
            "playerTrialScore": -7,
            "oppTrialScore": 7,
            "playerTotalScore": 390,
            "oppTotalScore": -547,
            "waitTime": 5624.266882741937,
            "responseTime": 1642745326861,
            "catchQuestion": "How many <b class=\"r\">red<\/b> marbles did your opponent report drawing? ",
            "catchKey": 59,
            "catchResponse": 59,
            "catchTime": 1642745326861,
            "trialTime": 0
        },
        {
            "exptPart": "trial",
            "trialNumber": 95,
            "roleCurrent": "sender",
            "marblesSampled": 100,
            "probRed": 0.5,
            "lambda": 5,
            "drawnRed": 61,
            "reportedRed": 32,
            "inferredRed": 37,
            "playerTrialScore": 24,
            "oppTrialScore": -24,
            "playerTotalScore": 414,
            "oppTotalScore": -571,
            "waitTime": 3138.881054288714,
            "responseTime": 1642745355692,
            "catchQuestion": "How many <b class=\"r\">red<\/b> marbles did your opponent report drawing? ",
            "catchKey": -1,
            "catchResponse": -1,
            "catchTime": 1642745355692,
            "trialTime": 0
        },
        {
            "exptPart": "trial",
            "trialNumber": 96,
            "roleCurrent": "receiver",
            "marblesSampled": 100,
            "probRed": 0.5,
            "lambda": 5,
            "drawnRed": 46,
            "reportedRed": 42,
            "inferredRed": 45,
            "playerTrialScore": -1,
            "oppTrialScore": 1,
            "playerTotalScore": 413,
            "oppTotalScore": -570,
            "waitTime": 5186.959463938772,
            "responseTime": 1642745374896,
            "catchQuestion": "How many <b class=\"r\">red<\/b> marbles did your opponent report drawing? ",
            "catchKey": -1,
            "catchResponse": -1,
            "catchTime": 1642745355692,
            "trialTime": 0
        },
        {
            "exptPart": "trial",
            "trialNumber": 97,
            "roleCurrent": "sender",
            "marblesSampled": 100,
            "probRed": 0.5,
            "lambda": 5,
            "drawnRed": 63,
            "reportedRed": 43,
            "inferredRed": 48,
            "playerTrialScore": 15,
            "oppTrialScore": -15,
            "playerTotalScore": 428,
            "oppTotalScore": -585,
            "waitTime": 2816.32037932811,
            "responseTime": 1642745393181,
            "catchQuestion": "How many <b class=\"r\">red<\/b> marbles did you actually draw (before any changes)? ",
            "catchKey": 63,
            "catchResponse": 67,
            "catchTime": 1642745393181,
            "trialTime": 0
        },
        {
            "exptPart": "trial",
            "trialNumber": 98,
            "roleCurrent": "receiver",
            "marblesSampled": 100,
            "probRed": 0.5,
            "lambda": 5,
            "drawnRed": 53,
            "reportedRed": 51,
            "inferredRed": 58,
            "playerTrialScore": -5,
            "oppTrialScore": 0,
            "playerTotalScore": 423,
            "oppTotalScore": -585,
            "waitTime": 6676.142070729956,
            "responseTime": 1642745411507,
            "catchQuestion": "How many <b class=\"r\">red<\/b> marbles did you actually draw (before any changes)? ",
            "catchKey": -1,
            "catchResponse": -1,
            "catchTime": 1642745393181,
            "trialTime": 0
        },
        {
            "exptPart": "trial",
            "trialNumber": 99,
            "roleCurrent": "sender",
            "marblesSampled": 100,
            "probRed": 0.5,
            "lambda": 5,
            "drawnRed": 71,
            "reportedRed": 13,
            "inferredRed": 23,
            "playerTrialScore": 48,
            "oppTrialScore": -48,
            "playerTotalScore": 471,
            "oppTotalScore": -633,
            "waitTime": 2235.755835649832,
            "responseTime": 1642745451771,
            "catchQuestion": "How many <b class=\"r\">red<\/b> marbles did you actually draw (before any changes)? ",
            "catchKey": -1,
            "catchResponse": -1,
            "catchTime": 1642745393181,
            "trialTime": 0
        },
        {
            "exptPart": "trial",
            "trialNumber": 100,
            "roleCurrent": "receiver",
            "marblesSampled": 100,
            "probRed": 0.5,
            "lambda": 5,
            "drawnRed": 69,
            "reportedRed": 66,
            "inferredRed": 69,
            "playerTrialScore": 0,
            "oppTrialScore": 0,
            "playerTotalScore": 471,
            "oppTotalScore": -633,
            "waitTime": 6883.714667448265,
            "responseTime": 1642745463834,
            "catchQuestion": "How many <b class=\"r\">red<\/b> marbles did you actually draw (before any changes)? ",
            "catchKey": -1,
            "catchResponse": -1,
            "catchTime": 1642745463834,
            "trialTime": 0
        }
    ]
}